submission_id,QUD,RT,age,comments,endTime,experiment_id,fileID,gender,min_chars,optionLeft,optionRight,picture,question,response,startDate,startTime,timeSpent,trial_name,trial_number
409,,178344,21,,1562336172198,71,NA,female,0,NA,NA,images/snellen/snellen.png,From which row on you can no longer recognize the letters completely? Only type in the number of the row:,8,Fri Jul 05 2019 16:08:36 GMT+0200 (Mitteleuropäische Sommerzeit),1562335716346,7.597533333333334,test_snellen,1
409,,5930,21,,1562336172198,71,58,female,NA,very bad,very good,images/stimuli/58.jpg,How much do you like this picture?,1,Fri Jul 05 2019 16:08:36 GMT+0200 (Mitteleuropäische Sommerzeit),1562335716346,7.597533333333334,b1_exp,1
409,,5826,21,,1562336172198,71,15,female,NA,very bad,very good,images/stimuli/15.jpg,How much do you like this picture?,2,Fri Jul 05 2019 16:08:36 GMT+0200 (Mitteleuropäische Sommerzeit),1562335716346,7.597533333333334,b1_exp,2
409,,3267,21,,1562336172198,71,43,female,NA,very bad,very good,images/stimuli/43.jpg,How much do you like this picture?,3,Fri Jul 05 2019 16:08:36 GMT+0200 (Mitteleuropäische Sommerzeit),1562335716346,7.597533333333334,b1_exp,3
409,,5742,21,,1562336172198,71,37,female,NA,very bad,very good,images/stimuli/37.jpg,How much do you like this picture?,6,Fri Jul 05 2019 16:08:36 GMT+0200 (Mitteleuropäische Sommerzeit),1562335716346,7.597533333333334,b1_exp,4
409,,29456,21,,1562336172198,71,14,female,NA,very bad,very good,images/stimuli/14.jpg,How much do you like this picture?,2,Fri Jul 05 2019 16:08:36 GMT+0200 (Mitteleuropäische Sommerzeit),1562335716346,7.597533333333334,b1_exp,5
409,,5114,21,,1562336172198,71,23,female,NA,very bad,very good,images/stimuli/23.jpg,How much do you like this picture?,1,Fri Jul 05 2019 16:08:36 GMT+0200 (Mitteleuropäische Sommerzeit),1562335716346,7.597533333333334,b1_exp,6
409,,13192,21,,1562336172198,71,20,female,NA,very bad,very good,images/stimuli/20.jpg,How much do you like this picture?,2,Fri Jul 05 2019 16:08:36 GMT+0200 (Mitteleuropäische Sommerzeit),1562335716346,7.597533333333334,b1_exp,7
409,,2570,21,,1562336172198,71,39,female,NA,very bad,very good,images/stimuli/39.jpg,How much do you like this picture?,6,Fri Jul 05 2019 16:08:36 GMT+0200 (Mitteleuropäische Sommerzeit),1562335716346,7.597533333333334,b1_exp,8
409,,4538,21,,1562336172198,71,12,female,NA,very bad,very good,images/stimuli/12.jpg,How much do you like this picture?,3,Fri Jul 05 2019 16:08:36 GMT+0200 (Mitteleuropäische Sommerzeit),1562335716346,7.597533333333334,b1_exp,9
409,,5293,21,,1562336172198,71,22,female,NA,very bad,very good,images/stimuli/22.jpg,How much do you like this picture?,2,Fri Jul 05 2019 16:08:36 GMT+0200 (Mitteleuropäische Sommerzeit),1562335716346,7.597533333333334,b1_exp,10
409,,2798,21,,1562336172198,71,32,female,NA,very bad,very good,images/stimuli/32.jpg,How much do you like this picture?,4,Fri Jul 05 2019 16:08:36 GMT+0200 (Mitteleuropäische Sommerzeit),1562335716346,7.597533333333334,b1_exp,11
409,,4213,21,,1562336172198,71,13,female,NA,very bad,very good,images/stimuli/13.jpg,How much do you like this picture?,1,Fri Jul 05 2019 16:08:36 GMT+0200 (Mitteleuropäische Sommerzeit),1562335716346,7.597533333333334,b1_exp,12
409,,4864,21,,1562336172198,71,3,female,NA,very bad,very good,images/stimuli/3.jpg,How much do you like this picture?,2,Fri Jul 05 2019 16:08:36 GMT+0200 (Mitteleuropäische Sommerzeit),1562335716346,7.597533333333334,b1_exp,13
409,,5766,21,,1562336172198,71,48,female,NA,very bad,very good,images/stimuli/48.jpg,How much do you like this picture?,7,Fri Jul 05 2019 16:08:36 GMT+0200 (Mitteleuropäische Sommerzeit),1562335716346,7.597533333333334,b1_exp,14
409,,5367,21,,1562336172198,71,51,female,NA,very bad,very good,images/stimuli/51.jpg,How much do you like this picture?,3,Fri Jul 05 2019 16:08:36 GMT+0200 (Mitteleuropäische Sommerzeit),1562335716346,7.597533333333334,b1_exp,15
409,,2416,21,,1562336172198,71,57,female,NA,very bad,very good,images/stimuli/57.jpg,How much do you like this picture?,4,Fri Jul 05 2019 16:08:36 GMT+0200 (Mitteleuropäische Sommerzeit),1562335716346,7.597533333333334,b1_exp,16
409,,1508,21,,1562336172198,71,18,female,NA,very bad,very good,images/stimuli/18.jpg,How much do you like this picture?,4,Fri Jul 05 2019 16:08:36 GMT+0200 (Mitteleuropäische Sommerzeit),1562335716346,7.597533333333334,b1_exp,17
409,,1537,21,,1562336172198,71,21,female,NA,very bad,very good,images/stimuli/21.jpg,How much do you like this picture?,4,Fri Jul 05 2019 16:08:36 GMT+0200 (Mitteleuropäische Sommerzeit),1562335716346,7.597533333333334,b1_exp,18
409,,1136,21,,1562336172198,71,50,female,NA,very bad,very good,images/stimuli/50.jpg,How much do you like this picture?,4,Fri Jul 05 2019 16:08:36 GMT+0200 (Mitteleuropäische Sommerzeit),1562335716346,7.597533333333334,b1_exp,19
409,,1317,21,,1562336172198,71,4,female,NA,very bad,very good,images/stimuli/4.jpg,How much do you like this picture?,4,Fri Jul 05 2019 16:08:36 GMT+0200 (Mitteleuropäische Sommerzeit),1562335716346,7.597533333333334,b1_exp,20
409,,1093,21,,1562336172198,71,40,female,NA,very bad,very good,images/stimuli/40.jpg,How much do you like this picture?,4,Fri Jul 05 2019 16:08:36 GMT+0200 (Mitteleuropäische Sommerzeit),1562335716346,7.597533333333334,b1_exp,21
409,,1017,21,,1562336172198,71,10,female,NA,very bad,very good,images/stimuli/10.jpg,How much do you like this picture?,4,Fri Jul 05 2019 16:08:36 GMT+0200 (Mitteleuropäische Sommerzeit),1562335716346,7.597533333333334,b1_exp,22
409,,788,21,,1562336172198,71,44,female,NA,very bad,very good,images/stimuli/44.jpg,How much do you like this picture?,4,Fri Jul 05 2019 16:08:36 GMT+0200 (Mitteleuropäische Sommerzeit),1562335716346,7.597533333333334,b1_exp,23
409,,717,21,,1562336172198,71,25,female,NA,very bad,very good,images/stimuli/25.jpg,How much do you like this picture?,4,Fri Jul 05 2019 16:08:36 GMT+0200 (Mitteleuropäische Sommerzeit),1562335716346,7.597533333333334,b1_exp,24
409,,1021,21,,1562336172198,71,1,female,NA,very bad,very good,images/stimuli/1.jpg,How much do you like this picture?,4,Fri Jul 05 2019 16:08:36 GMT+0200 (Mitteleuropäische Sommerzeit),1562335716346,7.597533333333334,b1_exp,25
409,,874,21,,1562336172198,71,11,female,NA,very bad,very good,images/stimuli/11.jpg,How much do you like this picture?,4,Fri Jul 05 2019 16:08:36 GMT+0200 (Mitteleuropäische Sommerzeit),1562335716346,7.597533333333334,b1_exp,26
409,,668,21,,1562336172198,71,9,female,NA,very bad,very good,images/stimuli/9.jpg,How much do you like this picture?,4,Fri Jul 05 2019 16:08:36 GMT+0200 (Mitteleuropäische Sommerzeit),1562335716346,7.597533333333334,b1_exp,27
409,,678,21,,1562336172198,71,6,female,NA,very bad,very good,images/stimuli/6.jpg,How much do you like this picture?,4,Fri Jul 05 2019 16:08:36 GMT+0200 (Mitteleuropäische Sommerzeit),1562335716346,7.597533333333334,b1_exp,28
409,,1050,21,,1562336172198,71,41,female,NA,very bad,very good,images/stimuli/41.jpg,How much do you like this picture?,4,Fri Jul 05 2019 16:08:36 GMT+0200 (Mitteleuropäische Sommerzeit),1562335716346,7.597533333333334,b1_exp,29
409,,681,21,,1562336172198,71,8,female,NA,very bad,very good,images/stimuli/8.jpg,How much do you like this picture?,4,Fri Jul 05 2019 16:08:36 GMT+0200 (Mitteleuropäische Sommerzeit),1562335716346,7.597533333333334,b1_exp,30
409,,820,21,,1562336172198,71,29,female,NA,very bad,very good,images/stimuli/29.jpg,How much do you like this picture?,4,Fri Jul 05 2019 16:08:36 GMT+0200 (Mitteleuropäische Sommerzeit),1562335716346,7.597533333333334,b1_exp,31
409,,826,21,,1562336172198,71,35,female,NA,very bad,very good,images/stimuli/35.jpg,How much do you like this picture?,4,Fri Jul 05 2019 16:08:36 GMT+0200 (Mitteleuropäische Sommerzeit),1562335716346,7.597533333333334,b1_exp,32
409,,772,21,,1562336172198,71,31,female,NA,very bad,very good,images/stimuli/31.jpg,How much do you like this picture?,4,Fri Jul 05 2019 16:08:36 GMT+0200 (Mitteleuropäische Sommerzeit),1562335716346,7.597533333333334,b1_exp,33
409,,1484,21,,1562336172198,71,24,female,NA,very bad,very good,images/stimuli/24.jpg,How much do you like this picture?,4,Fri Jul 05 2019 16:08:36 GMT+0200 (Mitteleuropäische Sommerzeit),1562335716346,7.597533333333334,b1_exp,34
409,,969,21,,1562336172198,71,45,female,NA,very bad,very good,images/stimuli/45.jpg,How much do you like this picture?,4,Fri Jul 05 2019 16:08:36 GMT+0200 (Mitteleuropäische Sommerzeit),1562335716346,7.597533333333334,b1_exp,35
409,,1156,21,,1562336172198,71,30,female,NA,very bad,very good,images/stimuli/30.jpg,How much do you like this picture?,4,Fri Jul 05 2019 16:08:36 GMT+0200 (Mitteleuropäische Sommerzeit),1562335716346,7.597533333333334,b1_exp,36
409,,840,21,,1562336172198,71,56,female,NA,very bad,very good,images/stimuli/56.jpg,How much do you like this picture?,4,Fri Jul 05 2019 16:08:36 GMT+0200 (Mitteleuropäische Sommerzeit),1562335716346,7.597533333333334,b1_exp,37
409,,1050,21,,1562336172198,71,7,female,NA,very bad,very good,images/stimuli/7.jpg,How much do you like this picture?,4,Fri Jul 05 2019 16:08:36 GMT+0200 (Mitteleuropäische Sommerzeit),1562335716346,7.597533333333334,b1_exp,38
409,,1059,21,,1562336172198,71,54,female,NA,very bad,very good,images/stimuli/54.jpg,How much do you like this picture?,4,Fri Jul 05 2019 16:08:36 GMT+0200 (Mitteleuropäische Sommerzeit),1562335716346,7.597533333333334,b1_exp,39
409,,851,21,,1562336172198,71,33,female,NA,very bad,very good,images/stimuli/33.jpg,How much do you like this picture?,4,Fri Jul 05 2019 16:08:36 GMT+0200 (Mitteleuropäische Sommerzeit),1562335716346,7.597533333333334,b1_exp,40
409,,813,21,,1562336172198,71,49,female,NA,very bad,very good,images/stimuli/49.jpg,How much do you like this picture?,4,Fri Jul 05 2019 16:08:36 GMT+0200 (Mitteleuropäische Sommerzeit),1562335716346,7.597533333333334,b1_exp,41
409,,1029,21,,1562336172198,71,60,female,NA,very bad,very good,images/stimuli/60.jpg,How much do you like this picture?,4,Fri Jul 05 2019 16:08:36 GMT+0200 (Mitteleuropäische Sommerzeit),1562335716346,7.597533333333334,b1_exp,42
409,,653,21,,1562336172198,71,38,female,NA,very bad,very good,images/stimuli/38.jpg,How much do you like this picture?,4,Fri Jul 05 2019 16:08:36 GMT+0200 (Mitteleuropäische Sommerzeit),1562335716346,7.597533333333334,b1_exp,43
409,,805,21,,1562336172198,71,17,female,NA,very bad,very good,images/stimuli/17.jpg,How much do you like this picture?,4,Fri Jul 05 2019 16:08:36 GMT+0200 (Mitteleuropäische Sommerzeit),1562335716346,7.597533333333334,b1_exp,44
409,,841,21,,1562336172198,71,26,female,NA,very bad,very good,images/stimuli/26.jpg,How much do you like this picture?,4,Fri Jul 05 2019 16:08:36 GMT+0200 (Mitteleuropäische Sommerzeit),1562335716346,7.597533333333334,b1_exp,45
409,,982,21,,1562336172198,71,16,female,NA,very bad,very good,images/stimuli/16.jpg,How much do you like this picture?,4,Fri Jul 05 2019 16:08:36 GMT+0200 (Mitteleuropäische Sommerzeit),1562335716346,7.597533333333334,b1_exp,46
409,,980,21,,1562336172198,71,28,female,NA,very bad,very good,images/stimuli/28.jpg,How much do you like this picture?,4,Fri Jul 05 2019 16:08:36 GMT+0200 (Mitteleuropäische Sommerzeit),1562335716346,7.597533333333334,b1_exp,47
409,,974,21,,1562336172198,71,55,female,NA,very bad,very good,images/stimuli/55.jpg,How much do you like this picture?,4,Fri Jul 05 2019 16:08:36 GMT+0200 (Mitteleuropäische Sommerzeit),1562335716346,7.597533333333334,b1_exp,48
409,,1207,21,,1562336172198,71,2,female,NA,very bad,very good,images/stimuli/2.jpg,How much do you like this picture?,4,Fri Jul 05 2019 16:08:36 GMT+0200 (Mitteleuropäische Sommerzeit),1562335716346,7.597533333333334,b1_exp,49
409,,931,21,,1562336172198,71,36,female,NA,very bad,very good,images/stimuli/36.jpg,How much do you like this picture?,4,Fri Jul 05 2019 16:08:36 GMT+0200 (Mitteleuropäische Sommerzeit),1562335716346,7.597533333333334,b1_exp,50
409,,988,21,,1562336172198,71,47,female,NA,very bad,very good,images/stimuli/47.jpg,How much do you like this picture?,4,Fri Jul 05 2019 16:08:36 GMT+0200 (Mitteleuropäische Sommerzeit),1562335716346,7.597533333333334,b1_exp,51
409,,946,21,,1562336172198,71,34,female,NA,very bad,very good,images/stimuli/34.jpg,How much do you like this picture?,4,Fri Jul 05 2019 16:08:36 GMT+0200 (Mitteleuropäische Sommerzeit),1562335716346,7.597533333333334,b1_exp,52
409,,1093,21,,1562336172198,71,42,female,NA,very bad,very good,images/stimuli/42.jpg,How much do you like this picture?,4,Fri Jul 05 2019 16:08:36 GMT+0200 (Mitteleuropäische Sommerzeit),1562335716346,7.597533333333334,b1_exp,53
409,,695,21,,1562336172198,71,19,female,NA,very bad,very good,images/stimuli/19.jpg,How much do you like this picture?,4,Fri Jul 05 2019 16:08:36 GMT+0200 (Mitteleuropäische Sommerzeit),1562335716346,7.597533333333334,b1_exp,54
409,,848,21,,1562336172198,71,5,female,NA,very bad,very good,images/stimuli/5.jpg,How much do you like this picture?,4,Fri Jul 05 2019 16:08:36 GMT+0200 (Mitteleuropäische Sommerzeit),1562335716346,7.597533333333334,b1_exp,55
409,,862,21,,1562336172198,71,53,female,NA,very bad,very good,images/stimuli/53.jpg,How much do you like this picture?,4,Fri Jul 05 2019 16:08:36 GMT+0200 (Mitteleuropäische Sommerzeit),1562335716346,7.597533333333334,b1_exp,56
409,,785,21,,1562336172198,71,59,female,NA,very bad,very good,images/stimuli/59.jpg,How much do you like this picture?,4,Fri Jul 05 2019 16:08:36 GMT+0200 (Mitteleuropäische Sommerzeit),1562335716346,7.597533333333334,b1_exp,57
409,,960,21,,1562336172198,71,46,female,NA,very bad,very good,images/stimuli/46.jpg,How much do you like this picture?,4,Fri Jul 05 2019 16:08:36 GMT+0200 (Mitteleuropäische Sommerzeit),1562335716346,7.597533333333334,b1_exp,58
409,,916,21,,1562336172198,71,52,female,NA,very bad,very good,images/stimuli/52.jpg,How much do you like this picture?,4,Fri Jul 05 2019 16:08:36 GMT+0200 (Mitteleuropäische Sommerzeit),1562335716346,7.597533333333334,b1_exp,59
409,,919,21,,1562336172198,71,27,female,NA,very bad,very good,images/stimuli/27.jpg,How much do you like this picture?,4,Fri Jul 05 2019 16:08:36 GMT+0200 (Mitteleuropäische Sommerzeit),1562335716346,7.597533333333334,b1_exp,60
409,,1601,21,,1562336172198,71,23,female,NA,not at all,very much,images/stimuli/23.jpg,How well can you identify patterns in this picture?,3,Fri Jul 05 2019 16:08:36 GMT+0200 (Mitteleuropäische Sommerzeit),1562335716346,7.597533333333334,b2_exp,1
409,,1884,21,,1562336172198,71,4,female,NA,not at all,very much,images/stimuli/4.jpg,How well can you identify patterns in this picture?,5,Fri Jul 05 2019 16:08:36 GMT+0200 (Mitteleuropäische Sommerzeit),1562335716346,7.597533333333334,b2_exp,2
409,,1279,21,,1562336172198,71,37,female,NA,not at all,very much,images/stimuli/37.jpg,How well can you identify patterns in this picture?,1,Fri Jul 05 2019 16:08:36 GMT+0200 (Mitteleuropäische Sommerzeit),1562335716346,7.597533333333334,b2_exp,3
409,,1163,21,,1562336172198,71,56,female,NA,not at all,very much,images/stimuli/56.jpg,How well can you identify patterns in this picture?,7,Fri Jul 05 2019 16:08:36 GMT+0200 (Mitteleuropäische Sommerzeit),1562335716346,7.597533333333334,b2_exp,4
409,,1074,21,,1562336172198,71,1,female,NA,not at all,very much,images/stimuli/1.jpg,How well can you identify patterns in this picture?,6,Fri Jul 05 2019 16:08:36 GMT+0200 (Mitteleuropäische Sommerzeit),1562335716346,7.597533333333334,b2_exp,5
409,,1908,21,,1562336172198,71,46,female,NA,not at all,very much,images/stimuli/46.jpg,How well can you identify patterns in this picture?,4,Fri Jul 05 2019 16:08:36 GMT+0200 (Mitteleuropäische Sommerzeit),1562335716346,7.597533333333334,b2_exp,6
409,,1789,21,,1562336172198,71,17,female,NA,not at all,very much,images/stimuli/17.jpg,How well can you identify patterns in this picture?,3,Fri Jul 05 2019 16:08:36 GMT+0200 (Mitteleuropäische Sommerzeit),1562335716346,7.597533333333334,b2_exp,7
409,,1026,21,,1562336172198,71,2,female,NA,not at all,very much,images/stimuli/2.jpg,How well can you identify patterns in this picture?,2,Fri Jul 05 2019 16:08:36 GMT+0200 (Mitteleuropäische Sommerzeit),1562335716346,7.597533333333334,b2_exp,8
409,,570,21,,1562336172198,71,50,female,NA,not at all,very much,images/stimuli/50.jpg,How well can you identify patterns in this picture?,1,Fri Jul 05 2019 16:08:36 GMT+0200 (Mitteleuropäische Sommerzeit),1562335716346,7.597533333333334,b2_exp,9
409,,1247,21,,1562336172198,71,16,female,NA,not at all,very much,images/stimuli/16.jpg,How well can you identify patterns in this picture?,7,Fri Jul 05 2019 16:08:36 GMT+0200 (Mitteleuropäische Sommerzeit),1562335716346,7.597533333333334,b2_exp,10
409,,968,21,,1562336172198,71,36,female,NA,not at all,very much,images/stimuli/36.jpg,How well can you identify patterns in this picture?,6,Fri Jul 05 2019 16:08:36 GMT+0200 (Mitteleuropäische Sommerzeit),1562335716346,7.597533333333334,b2_exp,11
409,,544,21,,1562336172198,71,8,female,NA,not at all,very much,images/stimuli/8.jpg,How well can you identify patterns in this picture?,5,Fri Jul 05 2019 16:08:36 GMT+0200 (Mitteleuropäische Sommerzeit),1562335716346,7.597533333333334,b2_exp,12
409,,612,21,,1562336172198,71,12,female,NA,not at all,very much,images/stimuli/12.jpg,How well can you identify patterns in this picture?,4,Fri Jul 05 2019 16:08:36 GMT+0200 (Mitteleuropäische Sommerzeit),1562335716346,7.597533333333334,b2_exp,13
409,,1263,21,,1562336172198,71,27,female,NA,not at all,very much,images/stimuli/27.jpg,How well can you identify patterns in this picture?,3,Fri Jul 05 2019 16:08:36 GMT+0200 (Mitteleuropäische Sommerzeit),1562335716346,7.597533333333334,b2_exp,14
409,,681,21,,1562336172198,71,38,female,NA,not at all,very much,images/stimuli/38.jpg,How well can you identify patterns in this picture?,2,Fri Jul 05 2019 16:08:36 GMT+0200 (Mitteleuropäische Sommerzeit),1562335716346,7.597533333333334,b2_exp,15
409,,576,21,,1562336172198,71,59,female,NA,not at all,very much,images/stimuli/59.jpg,How well can you identify patterns in this picture?,1,Fri Jul 05 2019 16:08:36 GMT+0200 (Mitteleuropäische Sommerzeit),1562335716346,7.597533333333334,b2_exp,16
409,,727,21,,1562336172198,71,19,female,NA,not at all,very much,images/stimuli/19.jpg,How well can you identify patterns in this picture?,7,Fri Jul 05 2019 16:08:36 GMT+0200 (Mitteleuropäische Sommerzeit),1562335716346,7.597533333333334,b2_exp,17
409,,543,21,,1562336172198,71,40,female,NA,not at all,very much,images/stimuli/40.jpg,How well can you identify patterns in this picture?,6,Fri Jul 05 2019 16:08:36 GMT+0200 (Mitteleuropäische Sommerzeit),1562335716346,7.597533333333334,b2_exp,18
409,,535,21,,1562336172198,71,6,female,NA,not at all,very much,images/stimuli/6.jpg,How well can you identify patterns in this picture?,5,Fri Jul 05 2019 16:08:36 GMT+0200 (Mitteleuropäische Sommerzeit),1562335716346,7.597533333333334,b2_exp,19
409,,482,21,,1562336172198,71,32,female,NA,not at all,very much,images/stimuli/32.jpg,How well can you identify patterns in this picture?,4,Fri Jul 05 2019 16:08:36 GMT+0200 (Mitteleuropäische Sommerzeit),1562335716346,7.597533333333334,b2_exp,20
409,,646,21,,1562336172198,71,51,female,NA,not at all,very much,images/stimuli/51.jpg,How well can you identify patterns in this picture?,3,Fri Jul 05 2019 16:08:36 GMT+0200 (Mitteleuropäische Sommerzeit),1562335716346,7.597533333333334,b2_exp,21
409,,525,21,,1562336172198,71,60,female,NA,not at all,very much,images/stimuli/60.jpg,How well can you identify patterns in this picture?,2,Fri Jul 05 2019 16:08:36 GMT+0200 (Mitteleuropäische Sommerzeit),1562335716346,7.597533333333334,b2_exp,22
409,,641,21,,1562336172198,71,3,female,NA,not at all,very much,images/stimuli/3.jpg,How well can you identify patterns in this picture?,1,Fri Jul 05 2019 16:08:36 GMT+0200 (Mitteleuropäische Sommerzeit),1562335716346,7.597533333333334,b2_exp,23
409,,790,21,,1562336172198,71,49,female,NA,not at all,very much,images/stimuli/49.jpg,How well can you identify patterns in this picture?,2,Fri Jul 05 2019 16:08:36 GMT+0200 (Mitteleuropäische Sommerzeit),1562335716346,7.597533333333334,b2_exp,24
409,,515,21,,1562336172198,71,41,female,NA,not at all,very much,images/stimuli/41.jpg,How well can you identify patterns in this picture?,3,Fri Jul 05 2019 16:08:36 GMT+0200 (Mitteleuropäische Sommerzeit),1562335716346,7.597533333333334,b2_exp,25
409,,585,21,,1562336172198,71,26,female,NA,not at all,very much,images/stimuli/26.jpg,How well can you identify patterns in this picture?,4,Fri Jul 05 2019 16:08:36 GMT+0200 (Mitteleuropäische Sommerzeit),1562335716346,7.597533333333334,b2_exp,26
409,,728,21,,1562336172198,71,9,female,NA,not at all,very much,images/stimuli/9.jpg,How well can you identify patterns in this picture?,5,Fri Jul 05 2019 16:08:36 GMT+0200 (Mitteleuropäische Sommerzeit),1562335716346,7.597533333333334,b2_exp,27
409,,1169,21,,1562336172198,71,57,female,NA,not at all,very much,images/stimuli/57.jpg,How well can you identify patterns in this picture?,6,Fri Jul 05 2019 16:08:36 GMT+0200 (Mitteleuropäische Sommerzeit),1562335716346,7.597533333333334,b2_exp,28
409,,550,21,,1562336172198,71,47,female,NA,not at all,very much,images/stimuli/47.jpg,How well can you identify patterns in this picture?,7,Fri Jul 05 2019 16:08:36 GMT+0200 (Mitteleuropäische Sommerzeit),1562335716346,7.597533333333334,b2_exp,29
409,,557,21,,1562336172198,71,54,female,NA,not at all,very much,images/stimuli/54.jpg,How well can you identify patterns in this picture?,6,Fri Jul 05 2019 16:08:36 GMT+0200 (Mitteleuropäische Sommerzeit),1562335716346,7.597533333333334,b2_exp,30
409,,556,21,,1562336172198,71,18,female,NA,not at all,very much,images/stimuli/18.jpg,How well can you identify patterns in this picture?,5,Fri Jul 05 2019 16:08:36 GMT+0200 (Mitteleuropäische Sommerzeit),1562335716346,7.597533333333334,b2_exp,31
409,,453,21,,1562336172198,71,11,female,NA,not at all,very much,images/stimuli/11.jpg,How well can you identify patterns in this picture?,4,Fri Jul 05 2019 16:08:36 GMT+0200 (Mitteleuropäische Sommerzeit),1562335716346,7.597533333333334,b2_exp,32
409,,527,21,,1562336172198,71,58,female,NA,not at all,very much,images/stimuli/58.jpg,How well can you identify patterns in this picture?,3,Fri Jul 05 2019 16:08:36 GMT+0200 (Mitteleuropäische Sommerzeit),1562335716346,7.597533333333334,b2_exp,33
409,,1086,21,,1562336172198,71,22,female,NA,not at all,very much,images/stimuli/22.jpg,How well can you identify patterns in this picture?,2,Fri Jul 05 2019 16:08:36 GMT+0200 (Mitteleuropäische Sommerzeit),1562335716346,7.597533333333334,b2_exp,34
409,,643,21,,1562336172198,71,15,female,NA,not at all,very much,images/stimuli/15.jpg,How well can you identify patterns in this picture?,1,Fri Jul 05 2019 16:08:36 GMT+0200 (Mitteleuropäische Sommerzeit),1562335716346,7.597533333333334,b2_exp,35
409,,676,21,,1562336172198,71,55,female,NA,not at all,very much,images/stimuli/55.jpg,How well can you identify patterns in this picture?,2,Fri Jul 05 2019 16:08:36 GMT+0200 (Mitteleuropäische Sommerzeit),1562335716346,7.597533333333334,b2_exp,36
409,,1029,21,,1562336172198,71,14,female,NA,not at all,very much,images/stimuli/14.jpg,How well can you identify patterns in this picture?,3,Fri Jul 05 2019 16:08:36 GMT+0200 (Mitteleuropäische Sommerzeit),1562335716346,7.597533333333334,b2_exp,37
409,,2165,21,,1562336172198,71,29,female,NA,not at all,very much,images/stimuli/29.jpg,How well can you identify patterns in this picture?,4,Fri Jul 05 2019 16:08:36 GMT+0200 (Mitteleuropäische Sommerzeit),1562335716346,7.597533333333334,b2_exp,38
409,,472,21,,1562336172198,71,44,female,NA,not at all,very much,images/stimuli/44.jpg,How well can you identify patterns in this picture?,4,Fri Jul 05 2019 16:08:36 GMT+0200 (Mitteleuropäische Sommerzeit),1562335716346,7.597533333333334,b2_exp,39
409,,189,21,,1562336172198,71,43,female,NA,not at all,very much,images/stimuli/43.jpg,How well can you identify patterns in this picture?,4,Fri Jul 05 2019 16:08:36 GMT+0200 (Mitteleuropäische Sommerzeit),1562335716346,7.597533333333334,b2_exp,40
409,,188,21,,1562336172198,71,53,female,NA,not at all,very much,images/stimuli/53.jpg,How well can you identify patterns in this picture?,4,Fri Jul 05 2019 16:08:36 GMT+0200 (Mitteleuropäische Sommerzeit),1562335716346,7.597533333333334,b2_exp,41
409,,192,21,,1562336172198,71,33,female,NA,not at all,very much,images/stimuli/33.jpg,How well can you identify patterns in this picture?,4,Fri Jul 05 2019 16:08:36 GMT+0200 (Mitteleuropäische Sommerzeit),1562335716346,7.597533333333334,b2_exp,42
409,,203,21,,1562336172198,71,31,female,NA,not at all,very much,images/stimuli/31.jpg,How well can you identify patterns in this picture?,4,Fri Jul 05 2019 16:08:36 GMT+0200 (Mitteleuropäische Sommerzeit),1562335716346,7.597533333333334,b2_exp,43
409,,193,21,,1562336172198,71,30,female,NA,not at all,very much,images/stimuli/30.jpg,How well can you identify patterns in this picture?,4,Fri Jul 05 2019 16:08:36 GMT+0200 (Mitteleuropäische Sommerzeit),1562335716346,7.597533333333334,b2_exp,44
409,,237,21,,1562336172198,71,34,female,NA,not at all,very much,images/stimuli/34.jpg,How well can you identify patterns in this picture?,4,Fri Jul 05 2019 16:08:36 GMT+0200 (Mitteleuropäische Sommerzeit),1562335716346,7.597533333333334,b2_exp,45
409,,179,21,,1562336172198,71,48,female,NA,not at all,very much,images/stimuli/48.jpg,How well can you identify patterns in this picture?,4,Fri Jul 05 2019 16:08:36 GMT+0200 (Mitteleuropäische Sommerzeit),1562335716346,7.597533333333334,b2_exp,46
409,,245,21,,1562336172198,71,42,female,NA,not at all,very much,images/stimuli/42.jpg,How well can you identify patterns in this picture?,4,Fri Jul 05 2019 16:08:36 GMT+0200 (Mitteleuropäische Sommerzeit),1562335716346,7.597533333333334,b2_exp,47
409,,195,21,,1562336172198,71,5,female,NA,not at all,very much,images/stimuli/5.jpg,How well can you identify patterns in this picture?,4,Fri Jul 05 2019 16:08:36 GMT+0200 (Mitteleuropäische Sommerzeit),1562335716346,7.597533333333334,b2_exp,48
409,,187,21,,1562336172198,71,25,female,NA,not at all,very much,images/stimuli/25.jpg,How well can you identify patterns in this picture?,4,Fri Jul 05 2019 16:08:36 GMT+0200 (Mitteleuropäische Sommerzeit),1562335716346,7.597533333333334,b2_exp,49
409,,182,21,,1562336172198,71,21,female,NA,not at all,very much,images/stimuli/21.jpg,How well can you identify patterns in this picture?,4,Fri Jul 05 2019 16:08:36 GMT+0200 (Mitteleuropäische Sommerzeit),1562335716346,7.597533333333334,b2_exp,50
409,,203,21,,1562336172198,71,13,female,NA,not at all,very much,images/stimuli/13.jpg,How well can you identify patterns in this picture?,4,Fri Jul 05 2019 16:08:36 GMT+0200 (Mitteleuropäische Sommerzeit),1562335716346,7.597533333333334,b2_exp,51
409,,215,21,,1562336172198,71,20,female,NA,not at all,very much,images/stimuli/20.jpg,How well can you identify patterns in this picture?,4,Fri Jul 05 2019 16:08:36 GMT+0200 (Mitteleuropäische Sommerzeit),1562335716346,7.597533333333334,b2_exp,52
409,,197,21,,1562336172198,71,52,female,NA,not at all,very much,images/stimuli/52.jpg,How well can you identify patterns in this picture?,4,Fri Jul 05 2019 16:08:36 GMT+0200 (Mitteleuropäische Sommerzeit),1562335716346,7.597533333333334,b2_exp,53
409,,208,21,,1562336172198,71,7,female,NA,not at all,very much,images/stimuli/7.jpg,How well can you identify patterns in this picture?,4,Fri Jul 05 2019 16:08:36 GMT+0200 (Mitteleuropäische Sommerzeit),1562335716346,7.597533333333334,b2_exp,54
409,,216,21,,1562336172198,71,35,female,NA,not at all,very much,images/stimuli/35.jpg,How well can you identify patterns in this picture?,4,Fri Jul 05 2019 16:08:36 GMT+0200 (Mitteleuropäische Sommerzeit),1562335716346,7.597533333333334,b2_exp,55
409,,236,21,,1562336172198,71,45,female,NA,not at all,very much,images/stimuli/45.jpg,How well can you identify patterns in this picture?,4,Fri Jul 05 2019 16:08:36 GMT+0200 (Mitteleuropäische Sommerzeit),1562335716346,7.597533333333334,b2_exp,56
409,,230,21,,1562336172198,71,39,female,NA,not at all,very much,images/stimuli/39.jpg,How well can you identify patterns in this picture?,4,Fri Jul 05 2019 16:08:36 GMT+0200 (Mitteleuropäische Sommerzeit),1562335716346,7.597533333333334,b2_exp,57
409,,201,21,,1562336172198,71,24,female,NA,not at all,very much,images/stimuli/24.jpg,How well can you identify patterns in this picture?,4,Fri Jul 05 2019 16:08:36 GMT+0200 (Mitteleuropäische Sommerzeit),1562335716346,7.597533333333334,b2_exp,58
409,,223,21,,1562336172198,71,10,female,NA,not at all,very much,images/stimuli/10.jpg,How well can you identify patterns in this picture?,4,Fri Jul 05 2019 16:08:36 GMT+0200 (Mitteleuropäische Sommerzeit),1562335716346,7.597533333333334,b2_exp,59
409,,230,21,,1562336172198,71,28,female,NA,not at all,very much,images/stimuli/28.jpg,How well can you identify patterns in this picture?,4,Fri Jul 05 2019 16:08:36 GMT+0200 (Mitteleuropäische Sommerzeit),1562335716346,7.597533333333334,b2_exp,60
408,,19873,23,,1562246851978,71,NA,male,0,NA,NA,images/snellen/snellen.png,From which row on you can no longer recognize the letters completely? Only type in the number of the row:,10,Thu Jul 04 2019 15:20:15 GMT+0200 (Mitteleuropäische Sommerzeit),1562246415121,7.28095,test_snellen,1
408,,7640,23,,1562246851978,71,56,male,NA,very bad,very good,images/stimuli/56.jpg,How much do you like this picture?,5,Thu Jul 04 2019 15:20:15 GMT+0200 (Mitteleuropäische Sommerzeit),1562246415121,7.28095,b1_exp,1
408,,9492,23,,1562246851978,71,9,male,NA,very bad,very good,images/stimuli/9.jpg,How much do you like this picture?,5,Thu Jul 04 2019 15:20:15 GMT+0200 (Mitteleuropäische Sommerzeit),1562246415121,7.28095,b1_exp,2
408,,5878,23,,1562246851978,71,25,male,NA,very bad,very good,images/stimuli/25.jpg,How much do you like this picture?,5,Thu Jul 04 2019 15:20:15 GMT+0200 (Mitteleuropäische Sommerzeit),1562246415121,7.28095,b1_exp,3
408,,5750,23,,1562246851978,71,11,male,NA,very bad,very good,images/stimuli/11.jpg,How much do you like this picture?,3,Thu Jul 04 2019 15:20:15 GMT+0200 (Mitteleuropäische Sommerzeit),1562246415121,7.28095,b1_exp,4
408,,4620,23,,1562246851978,71,39,male,NA,very bad,very good,images/stimuli/39.jpg,How much do you like this picture?,6,Thu Jul 04 2019 15:20:15 GMT+0200 (Mitteleuropäische Sommerzeit),1562246415121,7.28095,b1_exp,5
408,,3173,23,,1562246851978,71,49,male,NA,very bad,very good,images/stimuli/49.jpg,How much do you like this picture?,6,Thu Jul 04 2019 15:20:15 GMT+0200 (Mitteleuropäische Sommerzeit),1562246415121,7.28095,b1_exp,6
408,,4644,23,,1562246851978,71,34,male,NA,very bad,very good,images/stimuli/34.jpg,How much do you like this picture?,4,Thu Jul 04 2019 15:20:15 GMT+0200 (Mitteleuropäische Sommerzeit),1562246415121,7.28095,b1_exp,7
408,,3196,23,,1562246851978,71,59,male,NA,very bad,very good,images/stimuli/59.jpg,How much do you like this picture?,4,Thu Jul 04 2019 15:20:15 GMT+0200 (Mitteleuropäische Sommerzeit),1562246415121,7.28095,b1_exp,8
408,,4313,23,,1562246851978,71,1,male,NA,very bad,very good,images/stimuli/1.jpg,How much do you like this picture?,4,Thu Jul 04 2019 15:20:15 GMT+0200 (Mitteleuropäische Sommerzeit),1562246415121,7.28095,b1_exp,9
408,,3688,23,,1562246851978,71,3,male,NA,very bad,very good,images/stimuli/3.jpg,How much do you like this picture?,5,Thu Jul 04 2019 15:20:15 GMT+0200 (Mitteleuropäische Sommerzeit),1562246415121,7.28095,b1_exp,10
408,,3350,23,,1562246851978,71,5,male,NA,very bad,very good,images/stimuli/5.jpg,How much do you like this picture?,7,Thu Jul 04 2019 15:20:15 GMT+0200 (Mitteleuropäische Sommerzeit),1562246415121,7.28095,b1_exp,11
408,,2924,23,,1562246851978,71,46,male,NA,very bad,very good,images/stimuli/46.jpg,How much do you like this picture?,7,Thu Jul 04 2019 15:20:15 GMT+0200 (Mitteleuropäische Sommerzeit),1562246415121,7.28095,b1_exp,12
408,,3095,23,,1562246851978,71,32,male,NA,very bad,very good,images/stimuli/32.jpg,How much do you like this picture?,7,Thu Jul 04 2019 15:20:15 GMT+0200 (Mitteleuropäische Sommerzeit),1562246415121,7.28095,b1_exp,13
408,,3155,23,,1562246851978,71,18,male,NA,very bad,very good,images/stimuli/18.jpg,How much do you like this picture?,3,Thu Jul 04 2019 15:20:15 GMT+0200 (Mitteleuropäische Sommerzeit),1562246415121,7.28095,b1_exp,14
408,,3598,23,,1562246851978,71,55,male,NA,very bad,very good,images/stimuli/55.jpg,How much do you like this picture?,5,Thu Jul 04 2019 15:20:15 GMT+0200 (Mitteleuropäische Sommerzeit),1562246415121,7.28095,b1_exp,15
408,,4369,23,,1562246851978,71,21,male,NA,very bad,very good,images/stimuli/21.jpg,How much do you like this picture?,7,Thu Jul 04 2019 15:20:15 GMT+0200 (Mitteleuropäische Sommerzeit),1562246415121,7.28095,b1_exp,16
408,,4825,23,,1562246851978,71,2,male,NA,very bad,very good,images/stimuli/2.jpg,How much do you like this picture?,7,Thu Jul 04 2019 15:20:15 GMT+0200 (Mitteleuropäische Sommerzeit),1562246415121,7.28095,b1_exp,17
408,,3181,23,,1562246851978,71,54,male,NA,very bad,very good,images/stimuli/54.jpg,How much do you like this picture?,6,Thu Jul 04 2019 15:20:15 GMT+0200 (Mitteleuropäische Sommerzeit),1562246415121,7.28095,b1_exp,18
408,,2684,23,,1562246851978,71,50,male,NA,very bad,very good,images/stimuli/50.jpg,How much do you like this picture?,7,Thu Jul 04 2019 15:20:15 GMT+0200 (Mitteleuropäische Sommerzeit),1562246415121,7.28095,b1_exp,19
408,,4126,23,,1562246851978,71,13,male,NA,very bad,very good,images/stimuli/13.jpg,How much do you like this picture?,4,Thu Jul 04 2019 15:20:15 GMT+0200 (Mitteleuropäische Sommerzeit),1562246415121,7.28095,b1_exp,20
408,,3090,23,,1562246851978,71,47,male,NA,very bad,very good,images/stimuli/47.jpg,How much do you like this picture?,7,Thu Jul 04 2019 15:20:15 GMT+0200 (Mitteleuropäische Sommerzeit),1562246415121,7.28095,b1_exp,21
408,,2622,23,,1562246851978,71,42,male,NA,very bad,very good,images/stimuli/42.jpg,How much do you like this picture?,6,Thu Jul 04 2019 15:20:15 GMT+0200 (Mitteleuropäische Sommerzeit),1562246415121,7.28095,b1_exp,22
408,,2825,23,,1562246851978,71,20,male,NA,very bad,very good,images/stimuli/20.jpg,How much do you like this picture?,3,Thu Jul 04 2019 15:20:15 GMT+0200 (Mitteleuropäische Sommerzeit),1562246415121,7.28095,b1_exp,23
408,,3027,23,,1562246851978,71,6,male,NA,very bad,very good,images/stimuli/6.jpg,How much do you like this picture?,4,Thu Jul 04 2019 15:20:15 GMT+0200 (Mitteleuropäische Sommerzeit),1562246415121,7.28095,b1_exp,24
408,,2819,23,,1562246851978,71,8,male,NA,very bad,very good,images/stimuli/8.jpg,How much do you like this picture?,3,Thu Jul 04 2019 15:20:15 GMT+0200 (Mitteleuropäische Sommerzeit),1562246415121,7.28095,b1_exp,25
408,,2474,23,,1562246851978,71,23,male,NA,very bad,very good,images/stimuli/23.jpg,How much do you like this picture?,3,Thu Jul 04 2019 15:20:15 GMT+0200 (Mitteleuropäische Sommerzeit),1562246415121,7.28095,b1_exp,26
408,,2740,23,,1562246851978,71,38,male,NA,very bad,very good,images/stimuli/38.jpg,How much do you like this picture?,4,Thu Jul 04 2019 15:20:15 GMT+0200 (Mitteleuropäische Sommerzeit),1562246415121,7.28095,b1_exp,27
408,,2696,23,,1562246851978,71,24,male,NA,very bad,very good,images/stimuli/24.jpg,How much do you like this picture?,5,Thu Jul 04 2019 15:20:15 GMT+0200 (Mitteleuropäische Sommerzeit),1562246415121,7.28095,b1_exp,28
408,,3674,23,,1562246851978,71,16,male,NA,very bad,very good,images/stimuli/16.jpg,How much do you like this picture?,7,Thu Jul 04 2019 15:20:15 GMT+0200 (Mitteleuropäische Sommerzeit),1562246415121,7.28095,b1_exp,29
408,,2959,23,,1562246851978,71,15,male,NA,very bad,very good,images/stimuli/15.jpg,How much do you like this picture?,3,Thu Jul 04 2019 15:20:15 GMT+0200 (Mitteleuropäische Sommerzeit),1562246415121,7.28095,b1_exp,30
408,,2976,23,,1562246851978,71,4,male,NA,very bad,very good,images/stimuli/4.jpg,How much do you like this picture?,3,Thu Jul 04 2019 15:20:15 GMT+0200 (Mitteleuropäische Sommerzeit),1562246415121,7.28095,b1_exp,31
408,,4199,23,,1562246851978,71,58,male,NA,very bad,very good,images/stimuli/58.jpg,How much do you like this picture?,4,Thu Jul 04 2019 15:20:15 GMT+0200 (Mitteleuropäische Sommerzeit),1562246415121,7.28095,b1_exp,32
408,,6150,23,,1562246851978,71,30,male,NA,very bad,very good,images/stimuli/30.jpg,How much do you like this picture?,6,Thu Jul 04 2019 15:20:15 GMT+0200 (Mitteleuropäische Sommerzeit),1562246415121,7.28095,b1_exp,33
408,,3343,23,,1562246851978,71,36,male,NA,very bad,very good,images/stimuli/36.jpg,How much do you like this picture?,6,Thu Jul 04 2019 15:20:15 GMT+0200 (Mitteleuropäische Sommerzeit),1562246415121,7.28095,b1_exp,34
408,,3207,23,,1562246851978,71,22,male,NA,very bad,very good,images/stimuli/22.jpg,How much do you like this picture?,6,Thu Jul 04 2019 15:20:15 GMT+0200 (Mitteleuropäische Sommerzeit),1562246415121,7.28095,b1_exp,35
408,,4600,23,,1562246851978,71,52,male,NA,very bad,very good,images/stimuli/52.jpg,How much do you like this picture?,3,Thu Jul 04 2019 15:20:15 GMT+0200 (Mitteleuropäische Sommerzeit),1562246415121,7.28095,b1_exp,36
408,,2502,23,,1562246851978,71,31,male,NA,very bad,very good,images/stimuli/31.jpg,How much do you like this picture?,5,Thu Jul 04 2019 15:20:15 GMT+0200 (Mitteleuropäische Sommerzeit),1562246415121,7.28095,b1_exp,37
408,,2435,23,,1562246851978,71,45,male,NA,very bad,very good,images/stimuli/45.jpg,How much do you like this picture?,4,Thu Jul 04 2019 15:20:15 GMT+0200 (Mitteleuropäische Sommerzeit),1562246415121,7.28095,b1_exp,38
408,,3812,23,,1562246851978,71,7,male,NA,very bad,very good,images/stimuli/7.jpg,How much do you like this picture?,6,Thu Jul 04 2019 15:20:15 GMT+0200 (Mitteleuropäische Sommerzeit),1562246415121,7.28095,b1_exp,39
408,,2748,23,,1562246851978,71,41,male,NA,very bad,very good,images/stimuli/41.jpg,How much do you like this picture?,7,Thu Jul 04 2019 15:20:15 GMT+0200 (Mitteleuropäische Sommerzeit),1562246415121,7.28095,b1_exp,40
408,,6456,23,,1562246851978,71,29,male,NA,very bad,very good,images/stimuli/29.jpg,How much do you like this picture?,7,Thu Jul 04 2019 15:20:15 GMT+0200 (Mitteleuropäische Sommerzeit),1562246415121,7.28095,b1_exp,41
408,,3055,23,,1562246851978,71,53,male,NA,very bad,very good,images/stimuli/53.jpg,How much do you like this picture?,5,Thu Jul 04 2019 15:20:15 GMT+0200 (Mitteleuropäische Sommerzeit),1562246415121,7.28095,b1_exp,42
408,,2123,23,,1562246851978,71,57,male,NA,very bad,very good,images/stimuli/57.jpg,How much do you like this picture?,4,Thu Jul 04 2019 15:20:15 GMT+0200 (Mitteleuropäische Sommerzeit),1562246415121,7.28095,b1_exp,43
408,,2535,23,,1562246851978,71,51,male,NA,very bad,very good,images/stimuli/51.jpg,How much do you like this picture?,7,Thu Jul 04 2019 15:20:15 GMT+0200 (Mitteleuropäische Sommerzeit),1562246415121,7.28095,b1_exp,44
408,,3179,23,,1562246851978,71,40,male,NA,very bad,very good,images/stimuli/40.jpg,How much do you like this picture?,7,Thu Jul 04 2019 15:20:15 GMT+0200 (Mitteleuropäische Sommerzeit),1562246415121,7.28095,b1_exp,45
408,,2615,23,,1562246851978,71,10,male,NA,very bad,very good,images/stimuli/10.jpg,How much do you like this picture?,4,Thu Jul 04 2019 15:20:15 GMT+0200 (Mitteleuropäische Sommerzeit),1562246415121,7.28095,b1_exp,46
408,,4484,23,,1562246851978,71,60,male,NA,very bad,very good,images/stimuli/60.jpg,How much do you like this picture?,3,Thu Jul 04 2019 15:20:15 GMT+0200 (Mitteleuropäische Sommerzeit),1562246415121,7.28095,b1_exp,47
408,,2389,23,,1562246851978,71,19,male,NA,very bad,very good,images/stimuli/19.jpg,How much do you like this picture?,7,Thu Jul 04 2019 15:20:15 GMT+0200 (Mitteleuropäische Sommerzeit),1562246415121,7.28095,b1_exp,48
408,,2540,23,,1562246851978,71,37,male,NA,very bad,very good,images/stimuli/37.jpg,How much do you like this picture?,6,Thu Jul 04 2019 15:20:15 GMT+0200 (Mitteleuropäische Sommerzeit),1562246415121,7.28095,b1_exp,49
408,,3213,23,,1562246851978,71,28,male,NA,very bad,very good,images/stimuli/28.jpg,How much do you like this picture?,3,Thu Jul 04 2019 15:20:15 GMT+0200 (Mitteleuropäische Sommerzeit),1562246415121,7.28095,b1_exp,50
408,,2273,23,,1562246851978,71,14,male,NA,very bad,very good,images/stimuli/14.jpg,How much do you like this picture?,4,Thu Jul 04 2019 15:20:15 GMT+0200 (Mitteleuropäische Sommerzeit),1562246415121,7.28095,b1_exp,51
408,,2662,23,,1562246851978,71,48,male,NA,very bad,very good,images/stimuli/48.jpg,How much do you like this picture?,7,Thu Jul 04 2019 15:20:15 GMT+0200 (Mitteleuropäische Sommerzeit),1562246415121,7.28095,b1_exp,52
408,,2492,23,,1562246851978,71,12,male,NA,very bad,very good,images/stimuli/12.jpg,How much do you like this picture?,4,Thu Jul 04 2019 15:20:15 GMT+0200 (Mitteleuropäische Sommerzeit),1562246415121,7.28095,b1_exp,53
408,,3117,23,,1562246851978,71,33,male,NA,very bad,very good,images/stimuli/33.jpg,How much do you like this picture?,4,Thu Jul 04 2019 15:20:15 GMT+0200 (Mitteleuropäische Sommerzeit),1562246415121,7.28095,b1_exp,54
408,,2004,23,,1562246851978,71,44,male,NA,very bad,very good,images/stimuli/44.jpg,How much do you like this picture?,5,Thu Jul 04 2019 15:20:15 GMT+0200 (Mitteleuropäische Sommerzeit),1562246415121,7.28095,b1_exp,55
408,,2236,23,,1562246851978,71,27,male,NA,very bad,very good,images/stimuli/27.jpg,How much do you like this picture?,3,Thu Jul 04 2019 15:20:15 GMT+0200 (Mitteleuropäische Sommerzeit),1562246415121,7.28095,b1_exp,56
408,,1772,23,,1562246851978,71,43,male,NA,very bad,very good,images/stimuli/43.jpg,How much do you like this picture?,3,Thu Jul 04 2019 15:20:15 GMT+0200 (Mitteleuropäische Sommerzeit),1562246415121,7.28095,b1_exp,57
408,,4106,23,,1562246851978,71,17,male,NA,very bad,very good,images/stimuli/17.jpg,How much do you like this picture?,6,Thu Jul 04 2019 15:20:15 GMT+0200 (Mitteleuropäische Sommerzeit),1562246415121,7.28095,b1_exp,58
408,,3156,23,,1562246851978,71,26,male,NA,very bad,very good,images/stimuli/26.jpg,How much do you like this picture?,3,Thu Jul 04 2019 15:20:15 GMT+0200 (Mitteleuropäische Sommerzeit),1562246415121,7.28095,b1_exp,59
408,,2519,23,,1562246851978,71,35,male,NA,very bad,very good,images/stimuli/35.jpg,How much do you like this picture?,5,Thu Jul 04 2019 15:20:15 GMT+0200 (Mitteleuropäische Sommerzeit),1562246415121,7.28095,b1_exp,60
408,,7659,23,,1562246851978,71,26,male,NA,not at all,very much,images/stimuli/26.jpg,How well can you identify patterns in this picture?,3,Thu Jul 04 2019 15:20:15 GMT+0200 (Mitteleuropäische Sommerzeit),1562246415121,7.28095,b2_exp,1
408,,2977,23,,1562246851978,71,18,male,NA,not at all,very much,images/stimuli/18.jpg,How well can you identify patterns in this picture?,3,Thu Jul 04 2019 15:20:15 GMT+0200 (Mitteleuropäische Sommerzeit),1562246415121,7.28095,b2_exp,2
408,,3544,23,,1562246851978,71,31,male,NA,not at all,very much,images/stimuli/31.jpg,How well can you identify patterns in this picture?,6,Thu Jul 04 2019 15:20:15 GMT+0200 (Mitteleuropäische Sommerzeit),1562246415121,7.28095,b2_exp,3
408,,2072,23,,1562246851978,71,25,male,NA,not at all,very much,images/stimuli/25.jpg,How well can you identify patterns in this picture?,6,Thu Jul 04 2019 15:20:15 GMT+0200 (Mitteleuropäische Sommerzeit),1562246415121,7.28095,b2_exp,4
408,,2910,23,,1562246851978,71,35,male,NA,not at all,very much,images/stimuli/35.jpg,How well can you identify patterns in this picture?,5,Thu Jul 04 2019 15:20:15 GMT+0200 (Mitteleuropäische Sommerzeit),1562246415121,7.28095,b2_exp,5
408,,2416,23,,1562246851978,71,10,male,NA,not at all,very much,images/stimuli/10.jpg,How well can you identify patterns in this picture?,4,Thu Jul 04 2019 15:20:15 GMT+0200 (Mitteleuropäische Sommerzeit),1562246415121,7.28095,b2_exp,6
408,,2101,23,,1562246851978,71,34,male,NA,not at all,very much,images/stimuli/34.jpg,How well can you identify patterns in this picture?,5,Thu Jul 04 2019 15:20:15 GMT+0200 (Mitteleuropäische Sommerzeit),1562246415121,7.28095,b2_exp,7
408,,3496,23,,1562246851978,71,47,male,NA,not at all,very much,images/stimuli/47.jpg,How well can you identify patterns in this picture?,6,Thu Jul 04 2019 15:20:15 GMT+0200 (Mitteleuropäische Sommerzeit),1562246415121,7.28095,b2_exp,8
408,,1488,23,,1562246851978,71,36,male,NA,not at all,very much,images/stimuli/36.jpg,How well can you identify patterns in this picture?,6,Thu Jul 04 2019 15:20:15 GMT+0200 (Mitteleuropäische Sommerzeit),1562246415121,7.28095,b2_exp,9
408,,2129,23,,1562246851978,71,38,male,NA,not at all,very much,images/stimuli/38.jpg,How well can you identify patterns in this picture?,6,Thu Jul 04 2019 15:20:15 GMT+0200 (Mitteleuropäische Sommerzeit),1562246415121,7.28095,b2_exp,10
408,,2452,23,,1562246851978,71,29,male,NA,not at all,very much,images/stimuli/29.jpg,How well can you identify patterns in this picture?,4,Thu Jul 04 2019 15:20:15 GMT+0200 (Mitteleuropäische Sommerzeit),1562246415121,7.28095,b2_exp,11
408,,1797,23,,1562246851978,71,11,male,NA,not at all,very much,images/stimuli/11.jpg,How well can you identify patterns in this picture?,4,Thu Jul 04 2019 15:20:15 GMT+0200 (Mitteleuropäische Sommerzeit),1562246415121,7.28095,b2_exp,12
408,,3602,23,,1562246851978,71,54,male,NA,not at all,very much,images/stimuli/54.jpg,How well can you identify patterns in this picture?,5,Thu Jul 04 2019 15:20:15 GMT+0200 (Mitteleuropäische Sommerzeit),1562246415121,7.28095,b2_exp,13
408,,2184,23,,1562246851978,71,51,male,NA,not at all,very much,images/stimuli/51.jpg,How well can you identify patterns in this picture?,6,Thu Jul 04 2019 15:20:15 GMT+0200 (Mitteleuropäische Sommerzeit),1562246415121,7.28095,b2_exp,14
408,,2091,23,,1562246851978,71,52,male,NA,not at all,very much,images/stimuli/52.jpg,How well can you identify patterns in this picture?,6,Thu Jul 04 2019 15:20:15 GMT+0200 (Mitteleuropäische Sommerzeit),1562246415121,7.28095,b2_exp,15
408,,2033,23,,1562246851978,71,27,male,NA,not at all,very much,images/stimuli/27.jpg,How well can you identify patterns in this picture?,4,Thu Jul 04 2019 15:20:15 GMT+0200 (Mitteleuropäische Sommerzeit),1562246415121,7.28095,b2_exp,16
408,,3944,23,,1562246851978,71,20,male,NA,not at all,very much,images/stimuli/20.jpg,How well can you identify patterns in this picture?,6,Thu Jul 04 2019 15:20:15 GMT+0200 (Mitteleuropäische Sommerzeit),1562246415121,7.28095,b2_exp,17
408,,1890,23,,1562246851978,71,49,male,NA,not at all,very much,images/stimuli/49.jpg,How well can you identify patterns in this picture?,4,Thu Jul 04 2019 15:20:15 GMT+0200 (Mitteleuropäische Sommerzeit),1562246415121,7.28095,b2_exp,18
408,,1669,23,,1562246851978,71,53,male,NA,not at all,very much,images/stimuli/53.jpg,How well can you identify patterns in this picture?,5,Thu Jul 04 2019 15:20:15 GMT+0200 (Mitteleuropäische Sommerzeit),1562246415121,7.28095,b2_exp,19
408,,2271,23,,1562246851978,71,14,male,NA,not at all,very much,images/stimuli/14.jpg,How well can you identify patterns in this picture?,3,Thu Jul 04 2019 15:20:15 GMT+0200 (Mitteleuropäische Sommerzeit),1562246415121,7.28095,b2_exp,20
408,,2158,23,,1562246851978,71,30,male,NA,not at all,very much,images/stimuli/30.jpg,How well can you identify patterns in this picture?,5,Thu Jul 04 2019 15:20:15 GMT+0200 (Mitteleuropäische Sommerzeit),1562246415121,7.28095,b2_exp,21
408,,1922,23,,1562246851978,71,39,male,NA,not at all,very much,images/stimuli/39.jpg,How well can you identify patterns in this picture?,7,Thu Jul 04 2019 15:20:15 GMT+0200 (Mitteleuropäische Sommerzeit),1562246415121,7.28095,b2_exp,22
408,,1875,23,,1562246851978,71,59,male,NA,not at all,very much,images/stimuli/59.jpg,How well can you identify patterns in this picture?,4,Thu Jul 04 2019 15:20:15 GMT+0200 (Mitteleuropäische Sommerzeit),1562246415121,7.28095,b2_exp,23
408,,1651,23,,1562246851978,71,15,male,NA,not at all,very much,images/stimuli/15.jpg,How well can you identify patterns in this picture?,6,Thu Jul 04 2019 15:20:15 GMT+0200 (Mitteleuropäische Sommerzeit),1562246415121,7.28095,b2_exp,24
408,,1600,23,,1562246851978,71,60,male,NA,not at all,very much,images/stimuli/60.jpg,How well can you identify patterns in this picture?,5,Thu Jul 04 2019 15:20:15 GMT+0200 (Mitteleuropäische Sommerzeit),1562246415121,7.28095,b2_exp,25
408,,3915,23,,1562246851978,71,13,male,NA,not at all,very much,images/stimuli/13.jpg,How well can you identify patterns in this picture?,5,Thu Jul 04 2019 15:20:15 GMT+0200 (Mitteleuropäische Sommerzeit),1562246415121,7.28095,b2_exp,26
408,,1835,23,,1562246851978,71,12,male,NA,not at all,very much,images/stimuli/12.jpg,How well can you identify patterns in this picture?,5,Thu Jul 04 2019 15:20:15 GMT+0200 (Mitteleuropäische Sommerzeit),1562246415121,7.28095,b2_exp,27
408,,1761,23,,1562246851978,71,57,male,NA,not at all,very much,images/stimuli/57.jpg,How well can you identify patterns in this picture?,6,Thu Jul 04 2019 15:20:15 GMT+0200 (Mitteleuropäische Sommerzeit),1562246415121,7.28095,b2_exp,28
408,,1477,23,,1562246851978,71,40,male,NA,not at all,very much,images/stimuli/40.jpg,How well can you identify patterns in this picture?,7,Thu Jul 04 2019 15:20:15 GMT+0200 (Mitteleuropäische Sommerzeit),1562246415121,7.28095,b2_exp,29
408,,1732,23,,1562246851978,71,45,male,NA,not at all,very much,images/stimuli/45.jpg,How well can you identify patterns in this picture?,4,Thu Jul 04 2019 15:20:15 GMT+0200 (Mitteleuropäische Sommerzeit),1562246415121,7.28095,b2_exp,30
408,,2135,23,,1562246851978,71,3,male,NA,not at all,very much,images/stimuli/3.jpg,How well can you identify patterns in this picture?,5,Thu Jul 04 2019 15:20:15 GMT+0200 (Mitteleuropäische Sommerzeit),1562246415121,7.28095,b2_exp,31
408,,2541,23,,1562246851978,71,46,male,NA,not at all,very much,images/stimuli/46.jpg,How well can you identify patterns in this picture?,6,Thu Jul 04 2019 15:20:15 GMT+0200 (Mitteleuropäische Sommerzeit),1562246415121,7.28095,b2_exp,32
408,,2031,23,,1562246851978,71,50,male,NA,not at all,very much,images/stimuli/50.jpg,How well can you identify patterns in this picture?,7,Thu Jul 04 2019 15:20:15 GMT+0200 (Mitteleuropäische Sommerzeit),1562246415121,7.28095,b2_exp,33
408,,2027,23,,1562246851978,71,19,male,NA,not at all,very much,images/stimuli/19.jpg,How well can you identify patterns in this picture?,7,Thu Jul 04 2019 15:20:15 GMT+0200 (Mitteleuropäische Sommerzeit),1562246415121,7.28095,b2_exp,34
408,,1782,23,,1562246851978,71,17,male,NA,not at all,very much,images/stimuli/17.jpg,How well can you identify patterns in this picture?,6,Thu Jul 04 2019 15:20:15 GMT+0200 (Mitteleuropäische Sommerzeit),1562246415121,7.28095,b2_exp,35
408,,2102,23,,1562246851978,71,8,male,NA,not at all,very much,images/stimuli/8.jpg,How well can you identify patterns in this picture?,5,Thu Jul 04 2019 15:20:15 GMT+0200 (Mitteleuropäische Sommerzeit),1562246415121,7.28095,b2_exp,36
408,,2359,23,,1562246851978,71,44,male,NA,not at all,very much,images/stimuli/44.jpg,How well can you identify patterns in this picture?,7,Thu Jul 04 2019 15:20:15 GMT+0200 (Mitteleuropäische Sommerzeit),1562246415121,7.28095,b2_exp,37
408,,2107,23,,1562246851978,71,9,male,NA,not at all,very much,images/stimuli/9.jpg,How well can you identify patterns in this picture?,4,Thu Jul 04 2019 15:20:15 GMT+0200 (Mitteleuropäische Sommerzeit),1562246415121,7.28095,b2_exp,38
408,,2058,23,,1562246851978,71,55,male,NA,not at all,very much,images/stimuli/55.jpg,How well can you identify patterns in this picture?,5,Thu Jul 04 2019 15:20:15 GMT+0200 (Mitteleuropäische Sommerzeit),1562246415121,7.28095,b2_exp,39
408,,2023,23,,1562246851978,71,22,male,NA,not at all,very much,images/stimuli/22.jpg,How well can you identify patterns in this picture?,2,Thu Jul 04 2019 15:20:15 GMT+0200 (Mitteleuropäische Sommerzeit),1562246415121,7.28095,b2_exp,40
408,,2452,23,,1562246851978,71,37,male,NA,not at all,very much,images/stimuli/37.jpg,How well can you identify patterns in this picture?,5,Thu Jul 04 2019 15:20:15 GMT+0200 (Mitteleuropäische Sommerzeit),1562246415121,7.28095,b2_exp,41
408,,2385,23,,1562246851978,71,56,male,NA,not at all,very much,images/stimuli/56.jpg,How well can you identify patterns in this picture?,4,Thu Jul 04 2019 15:20:15 GMT+0200 (Mitteleuropäische Sommerzeit),1562246415121,7.28095,b2_exp,42
408,,2340,23,,1562246851978,71,6,male,NA,not at all,very much,images/stimuli/6.jpg,How well can you identify patterns in this picture?,5,Thu Jul 04 2019 15:20:15 GMT+0200 (Mitteleuropäische Sommerzeit),1562246415121,7.28095,b2_exp,43
408,,2926,23,,1562246851978,71,21,male,NA,not at all,very much,images/stimuli/21.jpg,How well can you identify patterns in this picture?,6,Thu Jul 04 2019 15:20:15 GMT+0200 (Mitteleuropäische Sommerzeit),1562246415121,7.28095,b2_exp,44
408,,1938,23,,1562246851978,71,43,male,NA,not at all,very much,images/stimuli/43.jpg,How well can you identify patterns in this picture?,3,Thu Jul 04 2019 15:20:15 GMT+0200 (Mitteleuropäische Sommerzeit),1562246415121,7.28095,b2_exp,45
408,,1840,23,,1562246851978,71,16,male,NA,not at all,very much,images/stimuli/16.jpg,How well can you identify patterns in this picture?,7,Thu Jul 04 2019 15:20:15 GMT+0200 (Mitteleuropäische Sommerzeit),1562246415121,7.28095,b2_exp,46
408,,2066,23,,1562246851978,71,33,male,NA,not at all,very much,images/stimuli/33.jpg,How well can you identify patterns in this picture?,4,Thu Jul 04 2019 15:20:15 GMT+0200 (Mitteleuropäische Sommerzeit),1562246415121,7.28095,b2_exp,47
408,,2648,23,,1562246851978,71,5,male,NA,not at all,very much,images/stimuli/5.jpg,How well can you identify patterns in this picture?,3,Thu Jul 04 2019 15:20:15 GMT+0200 (Mitteleuropäische Sommerzeit),1562246415121,7.28095,b2_exp,48
408,,1838,23,,1562246851978,71,1,male,NA,not at all,very much,images/stimuli/1.jpg,How well can you identify patterns in this picture?,4,Thu Jul 04 2019 15:20:15 GMT+0200 (Mitteleuropäische Sommerzeit),1562246415121,7.28095,b2_exp,49
408,,1820,23,,1562246851978,71,28,male,NA,not at all,very much,images/stimuli/28.jpg,How well can you identify patterns in this picture?,4,Thu Jul 04 2019 15:20:15 GMT+0200 (Mitteleuropäische Sommerzeit),1562246415121,7.28095,b2_exp,50
408,,1859,23,,1562246851978,71,41,male,NA,not at all,very much,images/stimuli/41.jpg,How well can you identify patterns in this picture?,6,Thu Jul 04 2019 15:20:15 GMT+0200 (Mitteleuropäische Sommerzeit),1562246415121,7.28095,b2_exp,51
408,,2003,23,,1562246851978,71,7,male,NA,not at all,very much,images/stimuli/7.jpg,How well can you identify patterns in this picture?,4,Thu Jul 04 2019 15:20:15 GMT+0200 (Mitteleuropäische Sommerzeit),1562246415121,7.28095,b2_exp,52
408,,1779,23,,1562246851978,71,4,male,NA,not at all,very much,images/stimuli/4.jpg,How well can you identify patterns in this picture?,3,Thu Jul 04 2019 15:20:15 GMT+0200 (Mitteleuropäische Sommerzeit),1562246415121,7.28095,b2_exp,53
408,,1787,23,,1562246851978,71,42,male,NA,not at all,very much,images/stimuli/42.jpg,How well can you identify patterns in this picture?,7,Thu Jul 04 2019 15:20:15 GMT+0200 (Mitteleuropäische Sommerzeit),1562246415121,7.28095,b2_exp,54
408,,2360,23,,1562246851978,71,32,male,NA,not at all,very much,images/stimuli/32.jpg,How well can you identify patterns in this picture?,6,Thu Jul 04 2019 15:20:15 GMT+0200 (Mitteleuropäische Sommerzeit),1562246415121,7.28095,b2_exp,55
408,,1906,23,,1562246851978,71,2,male,NA,not at all,very much,images/stimuli/2.jpg,How well can you identify patterns in this picture?,4,Thu Jul 04 2019 15:20:15 GMT+0200 (Mitteleuropäische Sommerzeit),1562246415121,7.28095,b2_exp,56
408,,1711,23,,1562246851978,71,58,male,NA,not at all,very much,images/stimuli/58.jpg,How well can you identify patterns in this picture?,4,Thu Jul 04 2019 15:20:15 GMT+0200 (Mitteleuropäische Sommerzeit),1562246415121,7.28095,b2_exp,57
408,,2355,23,,1562246851978,71,24,male,NA,not at all,very much,images/stimuli/24.jpg,How well can you identify patterns in this picture?,5,Thu Jul 04 2019 15:20:15 GMT+0200 (Mitteleuropäische Sommerzeit),1562246415121,7.28095,b2_exp,58
408,,1822,23,,1562246851978,71,48,male,NA,not at all,very much,images/stimuli/48.jpg,How well can you identify patterns in this picture?,6,Thu Jul 04 2019 15:20:15 GMT+0200 (Mitteleuropäische Sommerzeit),1562246415121,7.28095,b2_exp,59
408,,2019,23,,1562246851978,71,23,male,NA,not at all,very much,images/stimuli/23.jpg,How well can you identify patterns in this picture?,6,Thu Jul 04 2019 15:20:15 GMT+0200 (Mitteleuropäische Sommerzeit),1562246415121,7.28095,b2_exp,60
400,,22171,23,thanks moo,1562195314573,71,NA,divers,0,NA,NA,images/snellen/snellen.png,From which row on you can no longer recognize the letters completely? Only type in the number of the row:,11,Wed Jul 03 2019 18:38:25 GMT-0400 (Nordamerikanische Ostküsten-Sommerzeit),1562193505114,30.15765,test_snellen,1
400,,59591,23,thanks moo,1562195314573,71,40,divers,NA,very bad,very good,images/stimuli/40.jpg,How much do you like this picture?,6,Wed Jul 03 2019 18:38:25 GMT-0400 (Nordamerikanische Ostküsten-Sommerzeit),1562193505114,30.15765,b1_exp,1
400,,2128,23,thanks moo,1562195314573,71,41,divers,NA,very bad,very good,images/stimuli/41.jpg,How much do you like this picture?,4,Wed Jul 03 2019 18:38:25 GMT-0400 (Nordamerikanische Ostküsten-Sommerzeit),1562193505114,30.15765,b1_exp,2
400,,3173,23,thanks moo,1562195314573,71,56,divers,NA,very bad,very good,images/stimuli/56.jpg,How much do you like this picture?,7,Wed Jul 03 2019 18:38:25 GMT-0400 (Nordamerikanische Ostküsten-Sommerzeit),1562193505114,30.15765,b1_exp,3
400,,2268,23,thanks moo,1562195314573,71,51,divers,NA,very bad,very good,images/stimuli/51.jpg,How much do you like this picture?,5,Wed Jul 03 2019 18:38:25 GMT-0400 (Nordamerikanische Ostküsten-Sommerzeit),1562193505114,30.15765,b1_exp,4
400,,27096,23,thanks moo,1562195314573,71,6,divers,NA,very bad,very good,images/stimuli/6.jpg,How much do you like this picture?,6,Wed Jul 03 2019 18:38:25 GMT-0400 (Nordamerikanische Ostküsten-Sommerzeit),1562193505114,30.15765,b1_exp,5
400,,2139,23,thanks moo,1562195314573,71,8,divers,NA,very bad,very good,images/stimuli/8.jpg,How much do you like this picture?,6,Wed Jul 03 2019 18:38:25 GMT-0400 (Nordamerikanische Ostküsten-Sommerzeit),1562193505114,30.15765,b1_exp,6
400,,2349,23,thanks moo,1562195314573,71,31,divers,NA,very bad,very good,images/stimuli/31.jpg,How much do you like this picture?,6,Wed Jul 03 2019 18:38:25 GMT-0400 (Nordamerikanische Ostküsten-Sommerzeit),1562193505114,30.15765,b1_exp,7
400,,2467,23,thanks moo,1562195314573,71,15,divers,NA,very bad,very good,images/stimuli/15.jpg,How much do you like this picture?,6,Wed Jul 03 2019 18:38:25 GMT-0400 (Nordamerikanische Ostküsten-Sommerzeit),1562193505114,30.15765,b1_exp,8
400,,2288,23,thanks moo,1562195314573,71,22,divers,NA,very bad,very good,images/stimuli/22.jpg,How much do you like this picture?,6,Wed Jul 03 2019 18:38:25 GMT-0400 (Nordamerikanische Ostküsten-Sommerzeit),1562193505114,30.15765,b1_exp,9
400,,2446,23,thanks moo,1562195314573,71,48,divers,NA,very bad,very good,images/stimuli/48.jpg,How much do you like this picture?,4,Wed Jul 03 2019 18:38:25 GMT-0400 (Nordamerikanische Ostküsten-Sommerzeit),1562193505114,30.15765,b1_exp,10
400,,1957,23,thanks moo,1562195314573,71,27,divers,NA,very bad,very good,images/stimuli/27.jpg,How much do you like this picture?,2,Wed Jul 03 2019 18:38:25 GMT-0400 (Nordamerikanische Ostküsten-Sommerzeit),1562193505114,30.15765,b1_exp,11
400,,1773,23,thanks moo,1562195314573,71,28,divers,NA,very bad,very good,images/stimuli/28.jpg,How much do you like this picture?,7,Wed Jul 03 2019 18:38:25 GMT-0400 (Nordamerikanische Ostküsten-Sommerzeit),1562193505114,30.15765,b1_exp,12
400,,1870,23,thanks moo,1562195314573,71,23,divers,NA,very bad,very good,images/stimuli/23.jpg,How much do you like this picture?,4,Wed Jul 03 2019 18:38:25 GMT-0400 (Nordamerikanische Ostküsten-Sommerzeit),1562193505114,30.15765,b1_exp,13
400,,3463,23,thanks moo,1562195314573,71,59,divers,NA,very bad,very good,images/stimuli/59.jpg,How much do you like this picture?,2,Wed Jul 03 2019 18:38:25 GMT-0400 (Nordamerikanische Ostküsten-Sommerzeit),1562193505114,30.15765,b1_exp,14
400,,2308,23,thanks moo,1562195314573,71,43,divers,NA,very bad,very good,images/stimuli/43.jpg,How much do you like this picture?,6,Wed Jul 03 2019 18:38:25 GMT-0400 (Nordamerikanische Ostküsten-Sommerzeit),1562193505114,30.15765,b1_exp,15
400,,2169,23,thanks moo,1562195314573,71,53,divers,NA,very bad,very good,images/stimuli/53.jpg,How much do you like this picture?,4,Wed Jul 03 2019 18:38:25 GMT-0400 (Nordamerikanische Ostküsten-Sommerzeit),1562193505114,30.15765,b1_exp,16
400,,2049,23,thanks moo,1562195314573,71,5,divers,NA,very bad,very good,images/stimuli/5.jpg,How much do you like this picture?,6,Wed Jul 03 2019 18:38:25 GMT-0400 (Nordamerikanische Ostküsten-Sommerzeit),1562193505114,30.15765,b1_exp,17
400,,1770,23,thanks moo,1562195314573,71,38,divers,NA,very bad,very good,images/stimuli/38.jpg,How much do you like this picture?,4,Wed Jul 03 2019 18:38:25 GMT-0400 (Nordamerikanische Ostküsten-Sommerzeit),1562193505114,30.15765,b1_exp,18
400,,2318,23,thanks moo,1562195314573,71,45,divers,NA,very bad,very good,images/stimuli/45.jpg,How much do you like this picture?,2,Wed Jul 03 2019 18:38:25 GMT-0400 (Nordamerikanische Ostküsten-Sommerzeit),1562193505114,30.15765,b1_exp,19
400,,1680,23,thanks moo,1562195314573,71,33,divers,NA,very bad,very good,images/stimuli/33.jpg,How much do you like this picture?,3,Wed Jul 03 2019 18:38:25 GMT-0400 (Nordamerikanische Ostküsten-Sommerzeit),1562193505114,30.15765,b1_exp,20
400,,1990,23,thanks moo,1562195314573,71,50,divers,NA,very bad,very good,images/stimuli/50.jpg,How much do you like this picture?,7,Wed Jul 03 2019 18:38:25 GMT-0400 (Nordamerikanische Ostküsten-Sommerzeit),1562193505114,30.15765,b1_exp,21
400,,1988,23,thanks moo,1562195314573,71,36,divers,NA,very bad,very good,images/stimuli/36.jpg,How much do you like this picture?,4,Wed Jul 03 2019 18:38:25 GMT-0400 (Nordamerikanische Ostküsten-Sommerzeit),1562193505114,30.15765,b1_exp,22
400,,2010,23,thanks moo,1562195314573,71,34,divers,NA,very bad,very good,images/stimuli/34.jpg,How much do you like this picture?,1,Wed Jul 03 2019 18:38:25 GMT-0400 (Nordamerikanische Ostküsten-Sommerzeit),1562193505114,30.15765,b1_exp,23
400,,2438,23,thanks moo,1562195314573,71,10,divers,NA,very bad,very good,images/stimuli/10.jpg,How much do you like this picture?,3,Wed Jul 03 2019 18:38:25 GMT-0400 (Nordamerikanische Ostküsten-Sommerzeit),1562193505114,30.15765,b1_exp,24
400,,3262,23,thanks moo,1562195314573,71,42,divers,NA,very bad,very good,images/stimuli/42.jpg,How much do you like this picture?,7,Wed Jul 03 2019 18:38:25 GMT-0400 (Nordamerikanische Ostküsten-Sommerzeit),1562193505114,30.15765,b1_exp,25
400,,1850,23,thanks moo,1562195314573,71,19,divers,NA,very bad,very good,images/stimuli/19.jpg,How much do you like this picture?,5,Wed Jul 03 2019 18:38:25 GMT-0400 (Nordamerikanische Ostküsten-Sommerzeit),1562193505114,30.15765,b1_exp,26
400,,1710,23,thanks moo,1562195314573,71,37,divers,NA,very bad,very good,images/stimuli/37.jpg,How much do you like this picture?,3,Wed Jul 03 2019 18:38:25 GMT-0400 (Nordamerikanische Ostküsten-Sommerzeit),1562193505114,30.15765,b1_exp,27
400,,2159,23,thanks moo,1562195314573,71,54,divers,NA,very bad,very good,images/stimuli/54.jpg,How much do you like this picture?,6,Wed Jul 03 2019 18:38:25 GMT-0400 (Nordamerikanische Ostküsten-Sommerzeit),1562193505114,30.15765,b1_exp,28
400,,2376,23,thanks moo,1562195314573,71,30,divers,NA,very bad,very good,images/stimuli/30.jpg,How much do you like this picture?,3,Wed Jul 03 2019 18:38:25 GMT-0400 (Nordamerikanische Ostküsten-Sommerzeit),1562193505114,30.15765,b1_exp,29
400,,1740,23,thanks moo,1562195314573,71,18,divers,NA,very bad,very good,images/stimuli/18.jpg,How much do you like this picture?,1,Wed Jul 03 2019 18:38:25 GMT-0400 (Nordamerikanische Ostküsten-Sommerzeit),1562193505114,30.15765,b1_exp,30
400,,1951,23,thanks moo,1562195314573,71,55,divers,NA,very bad,very good,images/stimuli/55.jpg,How much do you like this picture?,7,Wed Jul 03 2019 18:38:25 GMT-0400 (Nordamerikanische Ostküsten-Sommerzeit),1562193505114,30.15765,b1_exp,31
400,,2207,23,thanks moo,1562195314573,71,47,divers,NA,very bad,very good,images/stimuli/47.jpg,How much do you like this picture?,6,Wed Jul 03 2019 18:38:25 GMT-0400 (Nordamerikanische Ostküsten-Sommerzeit),1562193505114,30.15765,b1_exp,32
400,,2227,23,thanks moo,1562195314573,71,58,divers,NA,very bad,very good,images/stimuli/58.jpg,How much do you like this picture?,3,Wed Jul 03 2019 18:38:25 GMT-0400 (Nordamerikanische Ostküsten-Sommerzeit),1562193505114,30.15765,b1_exp,33
400,,1790,23,thanks moo,1562195314573,71,20,divers,NA,very bad,very good,images/stimuli/20.jpg,How much do you like this picture?,4,Wed Jul 03 2019 18:38:25 GMT-0400 (Nordamerikanische Ostküsten-Sommerzeit),1562193505114,30.15765,b1_exp,34
400,,1753,23,thanks moo,1562195314573,71,16,divers,NA,very bad,very good,images/stimuli/16.jpg,How much do you like this picture?,5,Wed Jul 03 2019 18:38:25 GMT-0400 (Nordamerikanische Ostküsten-Sommerzeit),1562193505114,30.15765,b1_exp,35
400,,1869,23,thanks moo,1562195314573,71,14,divers,NA,very bad,very good,images/stimuli/14.jpg,How much do you like this picture?,1,Wed Jul 03 2019 18:38:25 GMT-0400 (Nordamerikanische Ostküsten-Sommerzeit),1562193505114,30.15765,b1_exp,36
400,,2389,23,thanks moo,1562195314573,71,44,divers,NA,very bad,very good,images/stimuli/44.jpg,How much do you like this picture?,7,Wed Jul 03 2019 18:38:25 GMT-0400 (Nordamerikanische Ostküsten-Sommerzeit),1562193505114,30.15765,b1_exp,37
400,,1939,23,thanks moo,1562195314573,71,32,divers,NA,very bad,very good,images/stimuli/32.jpg,How much do you like this picture?,6,Wed Jul 03 2019 18:38:25 GMT-0400 (Nordamerikanische Ostküsten-Sommerzeit),1562193505114,30.15765,b1_exp,38
400,,1761,23,thanks moo,1562195314573,71,21,divers,NA,very bad,very good,images/stimuli/21.jpg,How much do you like this picture?,4,Wed Jul 03 2019 18:38:25 GMT-0400 (Nordamerikanische Ostküsten-Sommerzeit),1562193505114,30.15765,b1_exp,39
400,,1650,23,thanks moo,1562195314573,71,25,divers,NA,very bad,very good,images/stimuli/25.jpg,How much do you like this picture?,5,Wed Jul 03 2019 18:38:25 GMT-0400 (Nordamerikanische Ostküsten-Sommerzeit),1562193505114,30.15765,b1_exp,40
400,,2340,23,thanks moo,1562195314573,71,2,divers,NA,very bad,very good,images/stimuli/2.jpg,How much do you like this picture?,2,Wed Jul 03 2019 18:38:25 GMT-0400 (Nordamerikanische Ostküsten-Sommerzeit),1562193505114,30.15765,b1_exp,41
400,,2208,23,thanks moo,1562195314573,71,12,divers,NA,very bad,very good,images/stimuli/12.jpg,How much do you like this picture?,5,Wed Jul 03 2019 18:38:25 GMT-0400 (Nordamerikanische Ostküsten-Sommerzeit),1562193505114,30.15765,b1_exp,42
400,,2149,23,thanks moo,1562195314573,71,11,divers,NA,very bad,very good,images/stimuli/11.jpg,How much do you like this picture?,7,Wed Jul 03 2019 18:38:25 GMT-0400 (Nordamerikanische Ostküsten-Sommerzeit),1562193505114,30.15765,b1_exp,43
400,,2477,23,thanks moo,1562195314573,71,35,divers,NA,very bad,very good,images/stimuli/35.jpg,How much do you like this picture?,1,Wed Jul 03 2019 18:38:25 GMT-0400 (Nordamerikanische Ostküsten-Sommerzeit),1562193505114,30.15765,b1_exp,44
400,,16452,23,thanks moo,1562195314573,71,60,divers,NA,very bad,very good,images/stimuli/60.jpg,How much do you like this picture?,5,Wed Jul 03 2019 18:38:25 GMT-0400 (Nordamerikanische Ostküsten-Sommerzeit),1562193505114,30.15765,b1_exp,45
400,,2856,23,thanks moo,1562195314573,71,49,divers,NA,very bad,very good,images/stimuli/49.jpg,How much do you like this picture?,7,Wed Jul 03 2019 18:38:25 GMT-0400 (Nordamerikanische Ostküsten-Sommerzeit),1562193505114,30.15765,b1_exp,46
400,,5342,23,thanks moo,1562195314573,71,9,divers,NA,very bad,very good,images/stimuli/9.jpg,How much do you like this picture?,2,Wed Jul 03 2019 18:38:25 GMT-0400 (Nordamerikanische Ostküsten-Sommerzeit),1562193505114,30.15765,b1_exp,47
400,,7395,23,thanks moo,1562195314573,71,4,divers,NA,very bad,very good,images/stimuli/4.jpg,How much do you like this picture?,6,Wed Jul 03 2019 18:38:25 GMT-0400 (Nordamerikanische Ostküsten-Sommerzeit),1562193505114,30.15765,b1_exp,48
400,,2417,23,thanks moo,1562195314573,71,1,divers,NA,very bad,very good,images/stimuli/1.jpg,How much do you like this picture?,1,Wed Jul 03 2019 18:38:25 GMT-0400 (Nordamerikanische Ostküsten-Sommerzeit),1562193505114,30.15765,b1_exp,49
400,,1663,23,thanks moo,1562195314573,71,17,divers,NA,very bad,very good,images/stimuli/17.jpg,How much do you like this picture?,5,Wed Jul 03 2019 18:38:25 GMT-0400 (Nordamerikanische Ostküsten-Sommerzeit),1562193505114,30.15765,b1_exp,50
400,,1572,23,thanks moo,1562195314573,71,26,divers,NA,very bad,very good,images/stimuli/26.jpg,How much do you like this picture?,3,Wed Jul 03 2019 18:38:25 GMT-0400 (Nordamerikanische Ostküsten-Sommerzeit),1562193505114,30.15765,b1_exp,51
400,,1949,23,thanks moo,1562195314573,71,24,divers,NA,very bad,very good,images/stimuli/24.jpg,How much do you like this picture?,7,Wed Jul 03 2019 18:38:25 GMT-0400 (Nordamerikanische Ostküsten-Sommerzeit),1562193505114,30.15765,b1_exp,52
400,,1593,23,thanks moo,1562195314573,71,57,divers,NA,very bad,very good,images/stimuli/57.jpg,How much do you like this picture?,5,Wed Jul 03 2019 18:38:25 GMT-0400 (Nordamerikanische Ostküsten-Sommerzeit),1562193505114,30.15765,b1_exp,53
400,,1839,23,thanks moo,1562195314573,71,3,divers,NA,very bad,very good,images/stimuli/3.jpg,How much do you like this picture?,2,Wed Jul 03 2019 18:38:25 GMT-0400 (Nordamerikanische Ostküsten-Sommerzeit),1562193505114,30.15765,b1_exp,54
400,,2250,23,thanks moo,1562195314573,71,7,divers,NA,very bad,very good,images/stimuli/7.jpg,How much do you like this picture?,7,Wed Jul 03 2019 18:38:25 GMT-0400 (Nordamerikanische Ostküsten-Sommerzeit),1562193505114,30.15765,b1_exp,55
400,,1780,23,thanks moo,1562195314573,71,29,divers,NA,very bad,very good,images/stimuli/29.jpg,How much do you like this picture?,5,Wed Jul 03 2019 18:38:25 GMT-0400 (Nordamerikanische Ostküsten-Sommerzeit),1562193505114,30.15765,b1_exp,56
400,,2275,23,thanks moo,1562195314573,71,13,divers,NA,very bad,very good,images/stimuli/13.jpg,How much do you like this picture?,3,Wed Jul 03 2019 18:38:25 GMT-0400 (Nordamerikanische Ostküsten-Sommerzeit),1562193505114,30.15765,b1_exp,57
400,,1912,23,thanks moo,1562195314573,71,46,divers,NA,very bad,very good,images/stimuli/46.jpg,How much do you like this picture?,1,Wed Jul 03 2019 18:38:25 GMT-0400 (Nordamerikanische Ostküsten-Sommerzeit),1562193505114,30.15765,b1_exp,58
400,,2280,23,thanks moo,1562195314573,71,52,divers,NA,very bad,very good,images/stimuli/52.jpg,How much do you like this picture?,7,Wed Jul 03 2019 18:38:25 GMT-0400 (Nordamerikanische Ostküsten-Sommerzeit),1562193505114,30.15765,b1_exp,59
400,,2158,23,thanks moo,1562195314573,71,39,divers,NA,very bad,very good,images/stimuli/39.jpg,How much do you like this picture?,6,Wed Jul 03 2019 18:38:25 GMT-0400 (Nordamerikanische Ostküsten-Sommerzeit),1562193505114,30.15765,b1_exp,60
400,,7952,23,thanks moo,1562195314573,71,4,divers,NA,not at all,very much,images/stimuli/4.jpg,How well can you identify patterns in this picture?,5,Wed Jul 03 2019 18:38:25 GMT-0400 (Nordamerikanische Ostküsten-Sommerzeit),1562193505114,30.15765,b2_exp,1
400,,1591,23,thanks moo,1562195314573,71,17,divers,NA,not at all,very much,images/stimuli/17.jpg,How well can you identify patterns in this picture?,3,Wed Jul 03 2019 18:38:25 GMT-0400 (Nordamerikanische Ostküsten-Sommerzeit),1562193505114,30.15765,b2_exp,2
400,,1632,23,thanks moo,1562195314573,71,49,divers,NA,not at all,very much,images/stimuli/49.jpg,How well can you identify patterns in this picture?,7,Wed Jul 03 2019 18:38:25 GMT-0400 (Nordamerikanische Ostküsten-Sommerzeit),1562193505114,30.15765,b2_exp,3
400,,4656,23,thanks moo,1562195314573,71,5,divers,NA,not at all,very much,images/stimuli/5.jpg,How well can you identify patterns in this picture?,5,Wed Jul 03 2019 18:38:25 GMT-0400 (Nordamerikanische Ostküsten-Sommerzeit),1562193505114,30.15765,b2_exp,4
400,,1781,23,thanks moo,1562195314573,71,7,divers,NA,not at all,very much,images/stimuli/7.jpg,How well can you identify patterns in this picture?,2,Wed Jul 03 2019 18:38:25 GMT-0400 (Nordamerikanische Ostküsten-Sommerzeit),1562193505114,30.15765,b2_exp,5
400,,2368,23,thanks moo,1562195314573,71,33,divers,NA,not at all,very much,images/stimuli/33.jpg,How well can you identify patterns in this picture?,7,Wed Jul 03 2019 18:38:25 GMT-0400 (Nordamerikanische Ostküsten-Sommerzeit),1562193505114,30.15765,b2_exp,6
400,,1602,23,thanks moo,1562195314573,71,30,divers,NA,not at all,very much,images/stimuli/30.jpg,How well can you identify patterns in this picture?,6,Wed Jul 03 2019 18:38:25 GMT-0400 (Nordamerikanische Ostküsten-Sommerzeit),1562193505114,30.15765,b2_exp,7
400,,1951,23,thanks moo,1562195314573,71,9,divers,NA,not at all,very much,images/stimuli/9.jpg,How well can you identify patterns in this picture?,3,Wed Jul 03 2019 18:38:25 GMT-0400 (Nordamerikanische Ostküsten-Sommerzeit),1562193505114,30.15765,b2_exp,8
400,,1731,23,thanks moo,1562195314573,71,27,divers,NA,not at all,very much,images/stimuli/27.jpg,How well can you identify patterns in this picture?,5,Wed Jul 03 2019 18:38:25 GMT-0400 (Nordamerikanische Ostküsten-Sommerzeit),1562193505114,30.15765,b2_exp,9
400,,1841,23,thanks moo,1562195314573,71,37,divers,NA,not at all,very much,images/stimuli/37.jpg,How well can you identify patterns in this picture?,2,Wed Jul 03 2019 18:38:25 GMT-0400 (Nordamerikanische Ostküsten-Sommerzeit),1562193505114,30.15765,b2_exp,10
400,,1919,23,thanks moo,1562195314573,71,40,divers,NA,not at all,very much,images/stimuli/40.jpg,How well can you identify patterns in this picture?,3,Wed Jul 03 2019 18:38:25 GMT-0400 (Nordamerikanische Ostküsten-Sommerzeit),1562193505114,30.15765,b2_exp,11
400,,3631,23,thanks moo,1562195314573,71,36,divers,NA,not at all,very much,images/stimuli/36.jpg,How well can you identify patterns in this picture?,6,Wed Jul 03 2019 18:38:25 GMT-0400 (Nordamerikanische Ostküsten-Sommerzeit),1562193505114,30.15765,b2_exp,12
400,,1372,23,thanks moo,1562195314573,71,53,divers,NA,not at all,very much,images/stimuli/53.jpg,How well can you identify patterns in this picture?,7,Wed Jul 03 2019 18:38:25 GMT-0400 (Nordamerikanische Ostküsten-Sommerzeit),1562193505114,30.15765,b2_exp,13
400,,1293,23,thanks moo,1562195314573,71,32,divers,NA,not at all,very much,images/stimuli/32.jpg,How well can you identify patterns in this picture?,2,Wed Jul 03 2019 18:38:25 GMT-0400 (Nordamerikanische Ostküsten-Sommerzeit),1562193505114,30.15765,b2_exp,14
400,,1650,23,thanks moo,1562195314573,71,20,divers,NA,not at all,very much,images/stimuli/20.jpg,How well can you identify patterns in this picture?,4,Wed Jul 03 2019 18:38:25 GMT-0400 (Nordamerikanische Ostküsten-Sommerzeit),1562193505114,30.15765,b2_exp,15
400,,1533,23,thanks moo,1562195314573,71,46,divers,NA,not at all,very much,images/stimuli/46.jpg,How well can you identify patterns in this picture?,5,Wed Jul 03 2019 18:38:25 GMT-0400 (Nordamerikanische Ostküsten-Sommerzeit),1562193505114,30.15765,b2_exp,16
400,,1390,23,thanks moo,1562195314573,71,21,divers,NA,not at all,very much,images/stimuli/21.jpg,How well can you identify patterns in this picture?,1,Wed Jul 03 2019 18:38:25 GMT-0400 (Nordamerikanische Ostküsten-Sommerzeit),1562193505114,30.15765,b2_exp,17
400,,1293,23,thanks moo,1562195314573,71,35,divers,NA,not at all,very much,images/stimuli/35.jpg,How well can you identify patterns in this picture?,7,Wed Jul 03 2019 18:38:25 GMT-0400 (Nordamerikanische Ostküsten-Sommerzeit),1562193505114,30.15765,b2_exp,18
400,,1312,23,thanks moo,1562195314573,71,41,divers,NA,not at all,very much,images/stimuli/41.jpg,How well can you identify patterns in this picture?,5,Wed Jul 03 2019 18:38:25 GMT-0400 (Nordamerikanische Ostküsten-Sommerzeit),1562193505114,30.15765,b2_exp,19
400,,786,23,thanks moo,1562195314573,71,19,divers,NA,not at all,very much,images/stimuli/19.jpg,How well can you identify patterns in this picture?,4,Wed Jul 03 2019 18:38:25 GMT-0400 (Nordamerikanische Ostküsten-Sommerzeit),1562193505114,30.15765,b2_exp,20
400,,1130,23,thanks moo,1562195314573,71,15,divers,NA,not at all,very much,images/stimuli/15.jpg,How well can you identify patterns in this picture?,2,Wed Jul 03 2019 18:38:25 GMT-0400 (Nordamerikanische Ostküsten-Sommerzeit),1562193505114,30.15765,b2_exp,21
400,,1236,23,thanks moo,1562195314573,71,18,divers,NA,not at all,very much,images/stimuli/18.jpg,How well can you identify patterns in this picture?,7,Wed Jul 03 2019 18:38:25 GMT-0400 (Nordamerikanische Ostküsten-Sommerzeit),1562193505114,30.15765,b2_exp,22
400,,1414,23,thanks moo,1562195314573,71,24,divers,NA,not at all,very much,images/stimuli/24.jpg,How well can you identify patterns in this picture?,5,Wed Jul 03 2019 18:38:25 GMT-0400 (Nordamerikanische Ostküsten-Sommerzeit),1562193505114,30.15765,b2_exp,23
400,,1511,23,thanks moo,1562195314573,71,60,divers,NA,not at all,very much,images/stimuli/60.jpg,How well can you identify patterns in this picture?,6,Wed Jul 03 2019 18:38:25 GMT-0400 (Nordamerikanische Ostküsten-Sommerzeit),1562193505114,30.15765,b2_exp,24
400,,1284,23,thanks moo,1562195314573,71,23,divers,NA,not at all,very much,images/stimuli/23.jpg,How well can you identify patterns in this picture?,1,Wed Jul 03 2019 18:38:25 GMT-0400 (Nordamerikanische Ostküsten-Sommerzeit),1562193505114,30.15765,b2_exp,25
400,,773,23,thanks moo,1562195314573,71,44,divers,NA,not at all,very much,images/stimuli/44.jpg,How well can you identify patterns in this picture?,3,Wed Jul 03 2019 18:38:25 GMT-0400 (Nordamerikanische Ostküsten-Sommerzeit),1562193505114,30.15765,b2_exp,26
400,,9,23,thanks moo,1562195314573,71,1,divers,NA,not at all,very much,images/stimuli/1.jpg,How well can you identify patterns in this picture?,3,Wed Jul 03 2019 18:38:25 GMT-0400 (Nordamerikanische Ostküsten-Sommerzeit),1562193505114,30.15765,b2_exp,27
400,,1353,23,thanks moo,1562195314573,71,50,divers,NA,not at all,very much,images/stimuli/50.jpg,How well can you identify patterns in this picture?,4,Wed Jul 03 2019 18:38:25 GMT-0400 (Nordamerikanische Ostküsten-Sommerzeit),1562193505114,30.15765,b2_exp,28
400,,1701,23,thanks moo,1562195314573,71,6,divers,NA,not at all,very much,images/stimuli/6.jpg,How well can you identify patterns in this picture?,7,Wed Jul 03 2019 18:38:25 GMT-0400 (Nordamerikanische Ostküsten-Sommerzeit),1562193505114,30.15765,b2_exp,29
400,,1335613,23,thanks moo,1562195314573,71,31,divers,NA,not at all,very much,images/stimuli/31.jpg,How well can you identify patterns in this picture?,5,Wed Jul 03 2019 18:38:25 GMT-0400 (Nordamerikanische Ostküsten-Sommerzeit),1562193505114,30.15765,b2_exp,30
400,,2380,23,thanks moo,1562195314573,71,29,divers,NA,not at all,very much,images/stimuli/29.jpg,How well can you identify patterns in this picture?,6,Wed Jul 03 2019 18:38:25 GMT-0400 (Nordamerikanische Ostküsten-Sommerzeit),1562193505114,30.15765,b2_exp,31
400,,1600,23,thanks moo,1562195314573,71,26,divers,NA,not at all,very much,images/stimuli/26.jpg,How well can you identify patterns in this picture?,2,Wed Jul 03 2019 18:38:25 GMT-0400 (Nordamerikanische Ostküsten-Sommerzeit),1562193505114,30.15765,b2_exp,32
400,,1211,23,thanks moo,1562195314573,71,22,divers,NA,not at all,very much,images/stimuli/22.jpg,How well can you identify patterns in this picture?,4,Wed Jul 03 2019 18:38:25 GMT-0400 (Nordamerikanische Ostküsten-Sommerzeit),1562193505114,30.15765,b2_exp,33
400,,1610,23,thanks moo,1562195314573,71,10,divers,NA,not at all,very much,images/stimuli/10.jpg,How well can you identify patterns in this picture?,7,Wed Jul 03 2019 18:38:25 GMT-0400 (Nordamerikanische Ostküsten-Sommerzeit),1562193505114,30.15765,b2_exp,34
400,,1748,23,thanks moo,1562195314573,71,56,divers,NA,not at all,very much,images/stimuli/56.jpg,How well can you identify patterns in this picture?,5,Wed Jul 03 2019 18:38:25 GMT-0400 (Nordamerikanische Ostküsten-Sommerzeit),1562193505114,30.15765,b2_exp,35
400,,1152,23,thanks moo,1562195314573,71,25,divers,NA,not at all,very much,images/stimuli/25.jpg,How well can you identify patterns in this picture?,6,Wed Jul 03 2019 18:38:25 GMT-0400 (Nordamerikanische Ostküsten-Sommerzeit),1562193505114,30.15765,b2_exp,36
400,,1151,23,thanks moo,1562195314573,71,12,divers,NA,not at all,very much,images/stimuli/12.jpg,How well can you identify patterns in this picture?,3,Wed Jul 03 2019 18:38:25 GMT-0400 (Nordamerikanische Ostküsten-Sommerzeit),1562193505114,30.15765,b2_exp,37
400,,994,23,thanks moo,1562195314573,71,43,divers,NA,not at all,very much,images/stimuli/43.jpg,How well can you identify patterns in this picture?,4,Wed Jul 03 2019 18:38:25 GMT-0400 (Nordamerikanische Ostküsten-Sommerzeit),1562193505114,30.15765,b2_exp,38
400,,1300,23,thanks moo,1562195314573,71,52,divers,NA,not at all,very much,images/stimuli/52.jpg,How well can you identify patterns in this picture?,2,Wed Jul 03 2019 18:38:25 GMT-0400 (Nordamerikanische Ostküsten-Sommerzeit),1562193505114,30.15765,b2_exp,39
400,,1531,23,thanks moo,1562195314573,71,11,divers,NA,not at all,very much,images/stimuli/11.jpg,How well can you identify patterns in this picture?,7,Wed Jul 03 2019 18:38:25 GMT-0400 (Nordamerikanische Ostküsten-Sommerzeit),1562193505114,30.15765,b2_exp,40
400,,1599,23,thanks moo,1562195314573,71,51,divers,NA,not at all,very much,images/stimuli/51.jpg,How well can you identify patterns in this picture?,6,Wed Jul 03 2019 18:38:25 GMT-0400 (Nordamerikanische Ostküsten-Sommerzeit),1562193505114,30.15765,b2_exp,41
400,,4465,23,thanks moo,1562195314573,71,58,divers,NA,not at all,very much,images/stimuli/58.jpg,How well can you identify patterns in this picture?,4,Wed Jul 03 2019 18:38:25 GMT-0400 (Nordamerikanische Ostküsten-Sommerzeit),1562193505114,30.15765,b2_exp,42
400,,2633,23,thanks moo,1562195314573,71,59,divers,NA,not at all,very much,images/stimuli/59.jpg,How well can you identify patterns in this picture?,2,Wed Jul 03 2019 18:38:25 GMT-0400 (Nordamerikanische Ostküsten-Sommerzeit),1562193505114,30.15765,b2_exp,43
400,,7955,23,thanks moo,1562195314573,71,55,divers,NA,not at all,very much,images/stimuli/55.jpg,How well can you identify patterns in this picture?,5,Wed Jul 03 2019 18:38:25 GMT-0400 (Nordamerikanische Ostküsten-Sommerzeit),1562193505114,30.15765,b2_exp,44
400,,348,23,thanks moo,1562195314573,71,3,divers,NA,not at all,very much,images/stimuli/3.jpg,How well can you identify patterns in this picture?,5,Wed Jul 03 2019 18:38:25 GMT-0400 (Nordamerikanische Ostküsten-Sommerzeit),1562193505114,30.15765,b2_exp,45
400,,8927,23,thanks moo,1562195314573,71,13,divers,NA,not at all,very much,images/stimuli/13.jpg,How well can you identify patterns in this picture?,7,Wed Jul 03 2019 18:38:25 GMT-0400 (Nordamerikanische Ostküsten-Sommerzeit),1562193505114,30.15765,b2_exp,46
400,,1392,23,thanks moo,1562195314573,71,42,divers,NA,not at all,very much,images/stimuli/42.jpg,How well can you identify patterns in this picture?,3,Wed Jul 03 2019 18:38:25 GMT-0400 (Nordamerikanische Ostküsten-Sommerzeit),1562193505114,30.15765,b2_exp,47
400,,1696,23,thanks moo,1562195314573,71,8,divers,NA,not at all,very much,images/stimuli/8.jpg,How well can you identify patterns in this picture?,5,Wed Jul 03 2019 18:38:25 GMT-0400 (Nordamerikanische Ostküsten-Sommerzeit),1562193505114,30.15765,b2_exp,48
400,,1418,23,thanks moo,1562195314573,71,47,divers,NA,not at all,very much,images/stimuli/47.jpg,How well can you identify patterns in this picture?,2,Wed Jul 03 2019 18:38:25 GMT-0400 (Nordamerikanische Ostküsten-Sommerzeit),1562193505114,30.15765,b2_exp,49
400,,1372,23,thanks moo,1562195314573,71,34,divers,NA,not at all,very much,images/stimuli/34.jpg,How well can you identify patterns in this picture?,7,Wed Jul 03 2019 18:38:25 GMT-0400 (Nordamerikanische Ostküsten-Sommerzeit),1562193505114,30.15765,b2_exp,50
400,,1977,23,thanks moo,1562195314573,71,45,divers,NA,not at all,very much,images/stimuli/45.jpg,How well can you identify patterns in this picture?,5,Wed Jul 03 2019 18:38:25 GMT-0400 (Nordamerikanische Ostküsten-Sommerzeit),1562193505114,30.15765,b2_exp,51
400,,1231,23,thanks moo,1562195314573,71,39,divers,NA,not at all,very much,images/stimuli/39.jpg,How well can you identify patterns in this picture?,1,Wed Jul 03 2019 18:38:25 GMT-0400 (Nordamerikanische Ostküsten-Sommerzeit),1562193505114,30.15765,b2_exp,52
400,,1262,23,thanks moo,1562195314573,71,14,divers,NA,not at all,very much,images/stimuli/14.jpg,How well can you identify patterns in this picture?,4,Wed Jul 03 2019 18:38:25 GMT-0400 (Nordamerikanische Ostküsten-Sommerzeit),1562193505114,30.15765,b2_exp,53
400,,2088,23,thanks moo,1562195314573,71,38,divers,NA,not at all,very much,images/stimuli/38.jpg,How well can you identify patterns in this picture?,5,Wed Jul 03 2019 18:38:25 GMT-0400 (Nordamerikanische Ostküsten-Sommerzeit),1562193505114,30.15765,b2_exp,54
400,,1410,23,thanks moo,1562195314573,71,28,divers,NA,not at all,very much,images/stimuli/28.jpg,How well can you identify patterns in this picture?,3,Wed Jul 03 2019 18:38:25 GMT-0400 (Nordamerikanische Ostküsten-Sommerzeit),1562193505114,30.15765,b2_exp,55
400,,1373,23,thanks moo,1562195314573,71,2,divers,NA,not at all,very much,images/stimuli/2.jpg,How well can you identify patterns in this picture?,3,Wed Jul 03 2019 18:38:25 GMT-0400 (Nordamerikanische Ostküsten-Sommerzeit),1562193505114,30.15765,b2_exp,56
400,,1979,23,thanks moo,1562195314573,71,57,divers,NA,not at all,very much,images/stimuli/57.jpg,How well can you identify patterns in this picture?,4,Wed Jul 03 2019 18:38:25 GMT-0400 (Nordamerikanische Ostküsten-Sommerzeit),1562193505114,30.15765,b2_exp,57
400,,1303,23,thanks moo,1562195314573,71,48,divers,NA,not at all,very much,images/stimuli/48.jpg,How well can you identify patterns in this picture?,7,Wed Jul 03 2019 18:38:25 GMT-0400 (Nordamerikanische Ostküsten-Sommerzeit),1562193505114,30.15765,b2_exp,58
400,,1757,23,thanks moo,1562195314573,71,16,divers,NA,not at all,very much,images/stimuli/16.jpg,How well can you identify patterns in this picture?,1,Wed Jul 03 2019 18:38:25 GMT-0400 (Nordamerikanische Ostküsten-Sommerzeit),1562193505114,30.15765,b2_exp,59
400,,2010,23,thanks moo,1562195314573,71,54,divers,NA,not at all,very much,images/stimuli/54.jpg,How well can you identify patterns in this picture?,3,Wed Jul 03 2019 18:38:25 GMT-0400 (Nordamerikanische Ostküsten-Sommerzeit),1562193505114,30.15765,b2_exp,60
398,,9279,22,mo,1562190258691,71,NA,male,0,NA,NA,images/snellen/snellen.png,From which row on you can no longer recognize the letters completely? Only type in the number of the row:,9,Wed Jul 03 2019 23:41:24 GMT+0200 (Mitteleuropäische Sommerzeit),1562190084702,2.8998166666666667,test_snellen,1
398,,3159,22,mo,1562190258691,71,8,male,NA,very bad,very good,images/stimuli/8.jpg,How much do you like this picture?,5,Wed Jul 03 2019 23:41:24 GMT+0200 (Mitteleuropäische Sommerzeit),1562190084702,2.8998166666666667,b1_exp,1
398,,1637,22,mo,1562190258691,71,47,male,NA,very bad,very good,images/stimuli/47.jpg,How much do you like this picture?,3,Wed Jul 03 2019 23:41:24 GMT+0200 (Mitteleuropäische Sommerzeit),1562190084702,2.8998166666666667,b1_exp,2
398,,3150,22,mo,1562190258691,71,4,male,NA,very bad,very good,images/stimuli/4.jpg,How much do you like this picture?,4,Wed Jul 03 2019 23:41:24 GMT+0200 (Mitteleuropäische Sommerzeit),1562190084702,2.8998166666666667,b1_exp,3
398,,4402,22,mo,1562190258691,71,55,male,NA,very bad,very good,images/stimuli/55.jpg,How much do you like this picture?,3,Wed Jul 03 2019 23:41:24 GMT+0200 (Mitteleuropäische Sommerzeit),1562190084702,2.8998166666666667,b1_exp,4
398,,1707,22,mo,1562190258691,71,48,male,NA,very bad,very good,images/stimuli/48.jpg,How much do you like this picture?,4,Wed Jul 03 2019 23:41:24 GMT+0200 (Mitteleuropäische Sommerzeit),1562190084702,2.8998166666666667,b1_exp,5
398,,1273,22,mo,1562190258691,71,27,male,NA,very bad,very good,images/stimuli/27.jpg,How much do you like this picture?,5,Wed Jul 03 2019 23:41:24 GMT+0200 (Mitteleuropäische Sommerzeit),1562190084702,2.8998166666666667,b1_exp,6
398,,1345,22,mo,1562190258691,71,50,male,NA,very bad,very good,images/stimuli/50.jpg,How much do you like this picture?,2,Wed Jul 03 2019 23:41:24 GMT+0200 (Mitteleuropäische Sommerzeit),1562190084702,2.8998166666666667,b1_exp,7
398,,1170,22,mo,1562190258691,71,57,male,NA,very bad,very good,images/stimuli/57.jpg,How much do you like this picture?,6,Wed Jul 03 2019 23:41:24 GMT+0200 (Mitteleuropäische Sommerzeit),1562190084702,2.8998166666666667,b1_exp,8
398,,1033,22,mo,1562190258691,71,46,male,NA,very bad,very good,images/stimuli/46.jpg,How much do you like this picture?,3,Wed Jul 03 2019 23:41:24 GMT+0200 (Mitteleuropäische Sommerzeit),1562190084702,2.8998166666666667,b1_exp,9
398,,1406,22,mo,1562190258691,71,53,male,NA,very bad,very good,images/stimuli/53.jpg,How much do you like this picture?,4,Wed Jul 03 2019 23:41:24 GMT+0200 (Mitteleuropäische Sommerzeit),1562190084702,2.8998166666666667,b1_exp,10
398,,1003,22,mo,1562190258691,71,45,male,NA,very bad,very good,images/stimuli/45.jpg,How much do you like this picture?,3,Wed Jul 03 2019 23:41:24 GMT+0200 (Mitteleuropäische Sommerzeit),1562190084702,2.8998166666666667,b1_exp,11
398,,651,22,mo,1562190258691,71,3,male,NA,very bad,very good,images/stimuli/3.jpg,How much do you like this picture?,3,Wed Jul 03 2019 23:41:24 GMT+0200 (Mitteleuropäische Sommerzeit),1562190084702,2.8998166666666667,b1_exp,12
398,,904,22,mo,1562190258691,71,36,male,NA,very bad,very good,images/stimuli/36.jpg,How much do you like this picture?,4,Wed Jul 03 2019 23:41:24 GMT+0200 (Mitteleuropäische Sommerzeit),1562190084702,2.8998166666666667,b1_exp,13
398,,849,22,mo,1562190258691,71,24,male,NA,very bad,very good,images/stimuli/24.jpg,How much do you like this picture?,5,Wed Jul 03 2019 23:41:24 GMT+0200 (Mitteleuropäische Sommerzeit),1562190084702,2.8998166666666667,b1_exp,14
398,,853,22,mo,1562190258691,71,41,male,NA,very bad,very good,images/stimuli/41.jpg,How much do you like this picture?,2,Wed Jul 03 2019 23:41:24 GMT+0200 (Mitteleuropäische Sommerzeit),1562190084702,2.8998166666666667,b1_exp,15
398,,1091,22,mo,1562190258691,71,11,male,NA,very bad,very good,images/stimuli/11.jpg,How much do you like this picture?,6,Wed Jul 03 2019 23:41:24 GMT+0200 (Mitteleuropäische Sommerzeit),1562190084702,2.8998166666666667,b1_exp,16
398,,846,22,mo,1562190258691,71,1,male,NA,very bad,very good,images/stimuli/1.jpg,How much do you like this picture?,5,Wed Jul 03 2019 23:41:24 GMT+0200 (Mitteleuropäische Sommerzeit),1562190084702,2.8998166666666667,b1_exp,17
398,,1115,22,mo,1562190258691,71,32,male,NA,very bad,very good,images/stimuli/32.jpg,How much do you like this picture?,3,Wed Jul 03 2019 23:41:24 GMT+0200 (Mitteleuropäische Sommerzeit),1562190084702,2.8998166666666667,b1_exp,18
398,,755,22,mo,1562190258691,71,18,male,NA,very bad,very good,images/stimuli/18.jpg,How much do you like this picture?,4,Wed Jul 03 2019 23:41:24 GMT+0200 (Mitteleuropäische Sommerzeit),1562190084702,2.8998166666666667,b1_exp,19
398,,773,22,mo,1562190258691,71,49,male,NA,very bad,very good,images/stimuli/49.jpg,How much do you like this picture?,5,Wed Jul 03 2019 23:41:24 GMT+0200 (Mitteleuropäische Sommerzeit),1562190084702,2.8998166666666667,b1_exp,20
398,,854,22,mo,1562190258691,71,60,male,NA,very bad,very good,images/stimuli/60.jpg,How much do you like this picture?,3,Wed Jul 03 2019 23:41:24 GMT+0200 (Mitteleuropäische Sommerzeit),1562190084702,2.8998166666666667,b1_exp,21
398,,814,22,mo,1562190258691,71,39,male,NA,very bad,very good,images/stimuli/39.jpg,How much do you like this picture?,4,Wed Jul 03 2019 23:41:24 GMT+0200 (Mitteleuropäische Sommerzeit),1562190084702,2.8998166666666667,b1_exp,22
398,,816,22,mo,1562190258691,71,31,male,NA,very bad,very good,images/stimuli/31.jpg,How much do you like this picture?,5,Wed Jul 03 2019 23:41:24 GMT+0200 (Mitteleuropäische Sommerzeit),1562190084702,2.8998166666666667,b1_exp,23
398,,800,22,mo,1562190258691,71,43,male,NA,very bad,very good,images/stimuli/43.jpg,How much do you like this picture?,6,Wed Jul 03 2019 23:41:24 GMT+0200 (Mitteleuropäische Sommerzeit),1562190084702,2.8998166666666667,b1_exp,24
398,,912,22,mo,1562190258691,71,58,male,NA,very bad,very good,images/stimuli/58.jpg,How much do you like this picture?,4,Wed Jul 03 2019 23:41:24 GMT+0200 (Mitteleuropäische Sommerzeit),1562190084702,2.8998166666666667,b1_exp,25
398,,1103,22,mo,1562190258691,71,21,male,NA,very bad,very good,images/stimuli/21.jpg,How much do you like this picture?,5,Wed Jul 03 2019 23:41:24 GMT+0200 (Mitteleuropäische Sommerzeit),1562190084702,2.8998166666666667,b1_exp,26
398,,639,22,mo,1562190258691,71,59,male,NA,very bad,very good,images/stimuli/59.jpg,How much do you like this picture?,5,Wed Jul 03 2019 23:41:24 GMT+0200 (Mitteleuropäische Sommerzeit),1562190084702,2.8998166666666667,b1_exp,27
398,,785,22,mo,1562190258691,71,5,male,NA,very bad,very good,images/stimuli/5.jpg,How much do you like this picture?,4,Wed Jul 03 2019 23:41:24 GMT+0200 (Mitteleuropäische Sommerzeit),1562190084702,2.8998166666666667,b1_exp,28
398,,886,22,mo,1562190258691,71,17,male,NA,very bad,very good,images/stimuli/17.jpg,How much do you like this picture?,3,Wed Jul 03 2019 23:41:24 GMT+0200 (Mitteleuropäische Sommerzeit),1562190084702,2.8998166666666667,b1_exp,29
398,,861,22,mo,1562190258691,71,2,male,NA,very bad,very good,images/stimuli/2.jpg,How much do you like this picture?,2,Wed Jul 03 2019 23:41:24 GMT+0200 (Mitteleuropäische Sommerzeit),1562190084702,2.8998166666666667,b1_exp,30
398,,896,22,mo,1562190258691,71,51,male,NA,very bad,very good,images/stimuli/51.jpg,How much do you like this picture?,2,Wed Jul 03 2019 23:41:24 GMT+0200 (Mitteleuropäische Sommerzeit),1562190084702,2.8998166666666667,b1_exp,31
398,,1100,22,mo,1562190258691,71,14,male,NA,very bad,very good,images/stimuli/14.jpg,How much do you like this picture?,3,Wed Jul 03 2019 23:41:24 GMT+0200 (Mitteleuropäische Sommerzeit),1562190084702,2.8998166666666667,b1_exp,32
398,,831,22,mo,1562190258691,71,9,male,NA,very bad,very good,images/stimuli/9.jpg,How much do you like this picture?,2,Wed Jul 03 2019 23:41:24 GMT+0200 (Mitteleuropäische Sommerzeit),1562190084702,2.8998166666666667,b1_exp,33
398,,1623,22,mo,1562190258691,71,6,male,NA,very bad,very good,images/stimuli/6.jpg,How much do you like this picture?,4,Wed Jul 03 2019 23:41:24 GMT+0200 (Mitteleuropäische Sommerzeit),1562190084702,2.8998166666666667,b1_exp,34
398,,759,22,mo,1562190258691,71,56,male,NA,very bad,very good,images/stimuli/56.jpg,How much do you like this picture?,5,Wed Jul 03 2019 23:41:24 GMT+0200 (Mitteleuropäische Sommerzeit),1562190084702,2.8998166666666667,b1_exp,35
398,,806,22,mo,1562190258691,71,22,male,NA,very bad,very good,images/stimuli/22.jpg,How much do you like this picture?,6,Wed Jul 03 2019 23:41:24 GMT+0200 (Mitteleuropäische Sommerzeit),1562190084702,2.8998166666666667,b1_exp,36
398,,781,22,mo,1562190258691,71,54,male,NA,very bad,very good,images/stimuli/54.jpg,How much do you like this picture?,4,Wed Jul 03 2019 23:41:24 GMT+0200 (Mitteleuropäische Sommerzeit),1562190084702,2.8998166666666667,b1_exp,37
398,,773,22,mo,1562190258691,71,13,male,NA,very bad,very good,images/stimuli/13.jpg,How much do you like this picture?,5,Wed Jul 03 2019 23:41:24 GMT+0200 (Mitteleuropäische Sommerzeit),1562190084702,2.8998166666666667,b1_exp,38
398,,216,22,mo,1562190258691,71,28,male,NA,very bad,very good,images/stimuli/28.jpg,How much do you like this picture?,5,Wed Jul 03 2019 23:41:24 GMT+0200 (Mitteleuropäische Sommerzeit),1562190084702,2.8998166666666667,b1_exp,39
398,,950,22,mo,1562190258691,71,34,male,NA,very bad,very good,images/stimuli/34.jpg,How much do you like this picture?,4,Wed Jul 03 2019 23:41:24 GMT+0200 (Mitteleuropäische Sommerzeit),1562190084702,2.8998166666666667,b1_exp,40
398,,796,22,mo,1562190258691,71,16,male,NA,very bad,very good,images/stimuli/16.jpg,How much do you like this picture?,5,Wed Jul 03 2019 23:41:24 GMT+0200 (Mitteleuropäische Sommerzeit),1562190084702,2.8998166666666667,b1_exp,41
398,,754,22,mo,1562190258691,71,26,male,NA,very bad,very good,images/stimuli/26.jpg,How much do you like this picture?,3,Wed Jul 03 2019 23:41:24 GMT+0200 (Mitteleuropäische Sommerzeit),1562190084702,2.8998166666666667,b1_exp,42
398,,668,22,mo,1562190258691,71,44,male,NA,very bad,very good,images/stimuli/44.jpg,How much do you like this picture?,2,Wed Jul 03 2019 23:41:24 GMT+0200 (Mitteleuropäische Sommerzeit),1562190084702,2.8998166666666667,b1_exp,43
398,,815,22,mo,1562190258691,71,10,male,NA,very bad,very good,images/stimuli/10.jpg,How much do you like this picture?,3,Wed Jul 03 2019 23:41:24 GMT+0200 (Mitteleuropäische Sommerzeit),1562190084702,2.8998166666666667,b1_exp,44
398,,1704,22,mo,1562190258691,71,52,male,NA,very bad,very good,images/stimuli/52.jpg,How much do you like this picture?,4,Wed Jul 03 2019 23:41:24 GMT+0200 (Mitteleuropäische Sommerzeit),1562190084702,2.8998166666666667,b1_exp,45
398,,801,22,mo,1562190258691,71,37,male,NA,very bad,very good,images/stimuli/37.jpg,How much do you like this picture?,3,Wed Jul 03 2019 23:41:24 GMT+0200 (Mitteleuropäische Sommerzeit),1562190084702,2.8998166666666667,b1_exp,46
398,,786,22,mo,1562190258691,71,33,male,NA,very bad,very good,images/stimuli/33.jpg,How much do you like this picture?,2,Wed Jul 03 2019 23:41:24 GMT+0200 (Mitteleuropäische Sommerzeit),1562190084702,2.8998166666666667,b1_exp,47
398,,847,22,mo,1562190258691,71,35,male,NA,very bad,very good,images/stimuli/35.jpg,How much do you like this picture?,3,Wed Jul 03 2019 23:41:24 GMT+0200 (Mitteleuropäische Sommerzeit),1562190084702,2.8998166666666667,b1_exp,48
398,,853,22,mo,1562190258691,71,42,male,NA,very bad,very good,images/stimuli/42.jpg,How much do you like this picture?,4,Wed Jul 03 2019 23:41:24 GMT+0200 (Mitteleuropäische Sommerzeit),1562190084702,2.8998166666666667,b1_exp,49
398,,761,22,mo,1562190258691,71,40,male,NA,very bad,very good,images/stimuli/40.jpg,How much do you like this picture?,3,Wed Jul 03 2019 23:41:24 GMT+0200 (Mitteleuropäische Sommerzeit),1562190084702,2.8998166666666667,b1_exp,50
398,,1384,22,mo,1562190258691,71,29,male,NA,very bad,very good,images/stimuli/29.jpg,How much do you like this picture?,4,Wed Jul 03 2019 23:41:24 GMT+0200 (Mitteleuropäische Sommerzeit),1562190084702,2.8998166666666667,b1_exp,51
398,,1054,22,mo,1562190258691,71,7,male,NA,very bad,very good,images/stimuli/7.jpg,How much do you like this picture?,5,Wed Jul 03 2019 23:41:24 GMT+0200 (Mitteleuropäische Sommerzeit),1562190084702,2.8998166666666667,b1_exp,52
398,,746,22,mo,1562190258691,71,23,male,NA,very bad,very good,images/stimuli/23.jpg,How much do you like this picture?,4,Wed Jul 03 2019 23:41:24 GMT+0200 (Mitteleuropäische Sommerzeit),1562190084702,2.8998166666666667,b1_exp,53
398,,866,22,mo,1562190258691,71,38,male,NA,very bad,very good,images/stimuli/38.jpg,How much do you like this picture?,5,Wed Jul 03 2019 23:41:24 GMT+0200 (Mitteleuropäische Sommerzeit),1562190084702,2.8998166666666667,b1_exp,54
398,,745,22,mo,1562190258691,71,25,male,NA,very bad,very good,images/stimuli/25.jpg,How much do you like this picture?,4,Wed Jul 03 2019 23:41:24 GMT+0200 (Mitteleuropäische Sommerzeit),1562190084702,2.8998166666666667,b1_exp,55
398,,703,22,mo,1562190258691,71,20,male,NA,very bad,very good,images/stimuli/20.jpg,How much do you like this picture?,3,Wed Jul 03 2019 23:41:24 GMT+0200 (Mitteleuropäische Sommerzeit),1562190084702,2.8998166666666667,b1_exp,56
398,,1051,22,mo,1562190258691,71,15,male,NA,very bad,very good,images/stimuli/15.jpg,How much do you like this picture?,4,Wed Jul 03 2019 23:41:24 GMT+0200 (Mitteleuropäische Sommerzeit),1562190084702,2.8998166666666667,b1_exp,57
